Folder: DeSiPro_OmniUAV_2024/02_Appendices/Appendix_C_Experimental_Data_and_Analysis Reports/C_1_Materials_Tests/C_1_1_Tensile_tests/C_1_1_2_Quanton Iron

Note: 02_Appendices/Appendix_C_Experimental_Data_and_Analysis Reports/C_1_Materials_Tests/README.md
# Appendix_C-1_Materials
This repository stores the dataset of materials to tensile and flexion tests.
The directory is separated into two, namely tensile tests and flexion tests.
Each directory has seven data sets, with ten to twelve experiments each, relating to six types of resins used in additive manufacturing processes. 
These data are useful for evaluating the mechanical behavior of these materials.

File: Specimen_RawData_1.csv
Text Inputs : Specimen label;"1"
Dimension : Length;50,00000;mm
Dimension : Final length;100,00000;mm
Test : Rate 1;3,00000;mm/min
General : Unique Identifier;"{2AE97416-FF9F-4429-A10E-9744BE5EA52C}"

Time;Extension;Load;Strain 1
(sec);(mm);(N);(mm/mm)
0,00000;0,00000;9,06500;0,00007
3,60000;0,12003;64,29477;0,00080
7,20000;0,24000;67,46893;0,00095
10,80000;0,36003;69,63100;0,00099
14,40000;0,47991;85,76501;0,00118
18,00000;0,60003;143,16622;0,00195
21,60000;0,72000;199,91256;0,00277
25,20000;0,83997;255,78779;0,00363
28,80000;0,96008;306,04482;0,00447
32,40000;1,07994;355,61249;0,00530
36,00000;1,19997;402,25978;0,00612
39,60000;1,32000;449,44915;0,00695
43,20000;1,44000;494,27906;0,00778
46,80000;1,56000;534,74414;0,00857
50,40000;1,67997;573,56413;0,00933
54,00000;1,80003;610,70779;0,01009
57,60000;1,92003;647,82319;0,01085
61,20000;2,03997;682,35043;0,01160
64,80000;2,16003;716,70841;0,01235
68,40000;2,27988;749,77232;0,01312
72,00000;2,40008;783,55065;0,01388
75,60000;2,52003;815,57427;0,01466
79,20000;2,64000;847,09022;0,01543
82,80000;2,76003;877,49697;0,01622
86,40000;2,87997;907,65310;0,01703
90,00000;3,00000;936,26129;0,01784
93,60000;3,12002;963,73511;0,01864
97,20000;3,24000;989,50760;0,01946
100,80000;3,36002;1016,16671;0,02028
104,40000;3,47991;1040,85812;0,02112
108,00001;3,60002;1065,03563;0,02197
111,60001;3,72000;1088,26375;0,02284
115,20001;3,83994;1110,99677;0,02373
118,80001;3,96005;1131,77765;0,02463
122,40001;4,07994;1152,31099;0,02555
126,00001;4,20000;1171,34657;0,02649
129,60001;4,31999;1189,52356;0,02745
133,20001;4,43997;1206,58819;0,02843
136,80001;4,55999;1222,16754;0,02943
140,40001;4,67999;1236,69729;0,03045
144,00001;4,80005;1250,68799;0,03149
147,60001;4,91999;1262,76426;0,03255
151,20001;5,03999;1273,48676;0,03362
154,80001;5,16005;1283,08451;0,03472
158,40001;5,27991;1291,06529;0,03583
162,00001;5,40011;1298,45710;0,03697
165,60001;5,52002;1305,06232;0,03813
169,20001;5,63999;1310,11028;0,03931
172,80001;5,76002;1313,91743;0,04050
176,40001;5,87999;1317,44249;0,04171
180,00001;6,00002;1319,71426;0,04294
183,60001;6,12002;1321,47837;0,04420
187,20001;6,23999;1322,20844;0,04545
190,80001;6,36005;1321,86059;0,04673
194,40001;6,47994;1320,79218;0,04802
198,00001;6,60005;1319,70169;0,04931
201,51401;6,71706;1317,87490;0,05060
205,11401;6,83703;1316,07950;0,05192
208,71401;6,95714;1313,00241;0,05326
212,31401;7,07706;1310,11968;0,05461
215,91401;7,19700;1306,40343;0,05596
219,51401;7,31709;1302,72163;0,05733
223,11401;7,43703;1299,10260;0,05870
226,71401;7,55706;1295,01661;0,06008
230,31401;7,67711;1291,04340;0,06146
233,91401;7,79706;1286,42162;0,06285
237,51401;7,91708;1282,62071;0,06425
241,11401;8,03703;1278,19637;0,06565
244,71401;8,15711;1273,18287;0,06705
248,31401;8,27706;1269,05618;0,06846
251,91401;8,39711;1264,98891;0,06987
255,51401;8,51711;1260,24811;0,07128
259,11401;8,63703;1256,82009;0,07270
262,71401;8,75708;1252,20772;0,07411
266,31401;8,87708;1248,14995;0,07553
269,91401;8,99703;1244,60598;0,07695
273,51401;9,11711;1240,56386;0,07837
277,11401;9,23703;1236,83829;0,07979
280,71401;9,35714;1233,85210;0,08122
284,31401;9,47705;1230,73123;0,08264
287,91401;9,59705;1226,96171;0,08406
291,51401;9,71708;1223,92857;0,08549
295,11401;9,83703;1221,13349;0,08692
298,71401;9,95711;1218,03768;0,08835
302,31401;10,07708;1215,23952;0,08977
305,91401;10,19700;1212,48523;0,09119
309,51401;10,31708;1210,19157;0,09262
313,11401;10,43702;1207,56263;0,09404
316,71402;10,55705;1204,15036;0,09547
320,31402;10,67714;1201,63737;0,09690
323,91402;10,79705;1198,81416;0,09832
327,51402;10,91708;1197,63287;0,09976
331,11402;11,03702;1194,14218;0,10118
334,71402;11,15714;1191,63543;0,10262
338,31402;11,27702;1189,02847;0,10404
341,91402;11,39708;1187,26436;0,10546
345,51402;11,51711;1185,89820;0,10689
349,11402;11,63702;1182,90577;0,10831
352,71402;11,75705;1181,79647;0,10973
356,31402;11,87711;1179,07356;0,11116
359,91402;11,99702;1177,73246;0,11258
363,51402;12,11711;1176,16262;0,11401
367,11402;12,23702;1174,06631;0,11543
370,71402;12,35711;1172,92581;0,11685
374,31402;12,47705;1171,50005;0,11827
377,91402;12,59708;1170,26232;0,11970
381,51402;12,71708;1168,56406;0,12111
385,11402;12,83702;1166,47407;0,12254
388,71402;12,95714;1164,11773;0,12396
392,31402;13,07705;1164,02684;0,12538
395,91402;13,19699;1161,81467;0,12680
399,51402;13,31708;1161,54207;0,12823
403,11402;13,43705;1161,05005;0,12965
406,71402;13,55705;1160,00036;0,13107
410,31402;13,67711;1158,83788;0,13249
413,91402;13,79705;1157,36835;0,13390
417,51402;13,91711;1156,13379;0,13532
421,11402;14,03702;1155,05895;0,13673
424,71402;14,15711;1153,97479;0,13815
428,31402;14,27702;1153,63011;0,13957
431,91402;14,39713;1151,62786;0,14099
435,51402;14,51711;1151,28318;0,14240
439,11402;14,63702;1150,08308;0,14382
442,71402;14,75708;1150,14575;0,14525
446,31402;14,87711;1148,09647;0,14667
449,91402;14,99705;1147,70168;0,14808
453,51402;15,11711;1146,90578;0,14950
457,11402;15,23705;1145,48635;0,15092
460,71402;15,35713;1145,55219;0,15234
464,31402;15,47705;1144,64974;0,15375
467,91402;15,59708;1143,60629;0,15517
471,51402;15,71710;1142,06150;0,15659
475,11402;15,83705;1142,63808;0,15801
478,71402;15,95716;1141,29698;0,15943
482,31402;16,07708;1141,00873;0,16085
485,91402;16,19707;1140,25986;0,16227
489,51402;16,31710;1139,64248;0,16368
493,11402;16,43705;1139,67704;0,16510
496,71402;16,55708;1138,97510;0,16651
500,31402;16,67713;1138,61477;0,16793
503,91402;16,79708;1137,64340;0,16934
507,51402;16,91710;1137,95986;0,17076
511,11402;17,03699;1136,59687;0,17217
514,71402;17,15710;1136,64698;0,17359
518,31402;17,27702;1136,65015;0,17500
521,91402;17,39710;1137,33634;0,17642
525,51402;17,51707;1136,18327;0,17784
529,11403;17,63704;1135,63798;0,17925
532,71403;17,75707;1136,18951;0,18066
536,31403;17,87710;1135,46569;0,18207
539,91403;17,99705;1134,89227;0,18349
543,51403;18,11710;1133,94912;0,18491
547,11403;18,23702;1134,59770;0,18632
550,71403;18,35713;1134,38461;0,18774
554,31403;18,47704;1134,54442;0,18915
557,91403;18,59704;1134,35648;0,19057
561,51403;18,71707;1133,40700;0,19198
565,11403;18,83702;1133,61692;0,19340
568,71403;18,95716;1132,88062;0,19481
572,31403;19,07707;1133,62949;0,19622
575,91403;19,19704;1133,15322;0,19763
579,51403;19,31707;1133,63890;0,19905
583,11403;19,43707;1133,85199;0,20046
586,71403;19,55707;1133,80179;0,20188
590,31403;19,67713;1133,04667;0,20330
593,91403;19,79707;1133,40076;0,20472
597,51403;19,91713;1134,16528;0,20613
601,11403;20,03701;1134,23113;0,20754
604,71403;20,15713;1134,43164;0,20895
608,31403;20,27704;1134,25935;0,21037
611,91403;20,39713;1133,77050;0,21179
615,51403;20,51710;1134,06815;0,21320
619,11403;20,63704;1134,54759;0,21462
622,71403;20,75710;1134,01180;0,21603
626,31403;20,87710;1135,61917;0,21745
629,91403;20,99704;1134,79514;0,21887
633,51403;21,11707;1135,32469;0,22028
637,11403;21,23704;1135,97643;0,22170
640,71403;21,35710;1135,14606;0,22312
644,31403;21,47701;1135,15230;0,22453
647,91403;21,59704;1135,98900;0,22594
651,51403;21,71704;1136,23645;0,22736
655,11403;21,83698;1136,30854;0,22877
658,71403;21,95710;1136,13931;0,23019
662,31403;22,07704;1136,57173;0,23160
665,91403;22,19704;1136,94780;0,23301
669,51403;22,31704;1138,72448;0,23442
673,11403;22,43701;1137,54943;0,23584
676,71403;22,55704;1138,07265;0,23724
680,31403;22,67710;1138,03511;0,23867
683,91403;22,79704;1138,38920;0,24008
687,51403;22,91707;1139,76160;0,24148
691,11403;23,03701;1139,47643;0,24289
694,71403;23,15713;1139,97776;0,24431
698,31403;23,27701;1140,23788;0,24573
701,91403;23,39710;1141,29074;0,24714
705,51403;23,51707;1141,15598;0,24856
709,11403;23,63704;1141,92050;0,24997
712,71403;23,75710;1142,07724;0,25139
716,31403;23,87709;1142,46579;0,25280
719,91403;23,99704;1143,13941;0,25421
723,51403;24,11709;1143,45280;0,25564
727,11403;24,23704;1144,57766;0,25709
730,71403;24,35712;1144,91917;0,25852
734,31403;24,47707;1145,67755;0,25996
737,91404;24,59706;1146,67704;0,26140
741,51404;24,71706;1147,86150;0,26284
745,11404;24,83701;1148,54770;0,26427
748,71404;24,95715;1149,40945;0,26571
752,31404;25,07706;1150,50301;0,26709
755,91404;25,19703;1150,26487;0,26850
759,51404;25,31706;1151,46497;0,26996
763,11404;25,43704;1151,76886;0,27138
766,71404;25,55704;1152,74647;0,27280
770,31404;25,67709;1152,97530;0,27421
773,91404;25,79704;1153,92786;0,27563
777,51404;25,91709;1155,24381;0,27707
781,11404;26,03704;1155,50393;0,27849
784,71404;26,15709;1156,66017;0,27991
788,31404;26,27703;1156,98604;0,28132
791,91404;26,39712;1157,13021;0,28272
795,51404;26,51709;1157,77254;0,28412
799,11404;26,63703;1158,74698;0,28553
802,71404;26,75709;1157,75997;0,28651
806,31404;26,87709;1157,75689;0,20699
809,91404;26,99706;1158,38982;0,04775
813,51404;27,11709;1158,54647;0,01483
817,11404;27,23703;1158,88491;0,01482
820,71404;27,41601;1180,06058;0,01481
824,31404;27,59609;1193,86641;0,01480
827,91404;27,77604;1206,06171;0,01479
831,51404;27,95612;1214,97009;0,01479
835,11404;28,13607;1222,72531;0,01478
838,71404;28,31609;1229,65649;0,01478
842,31404;28,49615;1234,54146;0,01477
845,91404;28,67615;1238,49586;0,01477
849,51404;28,85609;1243,11764;0,01477
853,11404;29,03609;1245,29228;0,01476
856,71404;29,21606;1247,29453;0,01476
860,31404;29,39612;1249,10250;0,01476
863,91404;29,57603;1250,51877;0,01476
867,51404;29,75612;1251,64054;0,01476
871,11404;29,93612;1252,60875;0,01476
874,71404;30,11618;1252,51478;0,01476
878,31404;30,29612;1252,56488;0,01475
881,91404;30,47609;1253,35138;0,01475
885,51404;30,65612;1253,94678;0,01475
889,11404;30,83612;1252,88768;0,01475
892,71404;31,01606;1252,89084;0,01475
896,31404;31,19603;1253,17592;0,01474
899,91404;31,37606;1251,53093;0,01474
903,51404;31,55611;1251,86928;0,01474
907,11404;31,73614;1252,09494;0,01474
910,71404;31,91612;1251,53717;0,01474
914,31404;32,09614;1251,40864;0,01474
917,91404;32,27609;1250,54074;0,01474
921,51404;32,45611;1249,58502;0,01474
925,11404;32,63609;1247,94934;0,01474
928,71404;32,81609;1246,71478;0,01474
932,31404;32,99603;1243,40281;0,01474
935,91404;33,17606;1240,96181;0,01473
939,51404;33,35617;1237,66866;0,01474
943,11404;33,53617;1233,05619;0,01474
946,71404;33,71611;1226,54494;0,01473
950,31405;33,89611;1214,99831;0,01473
953,91405;34,07611;1194,12336;0,01473
956,42605;34,20176;659,73024;0,01473

File: Specimen_RawData_3.csv
Text Inputs : Specimen label;"1"
Dimension : Length;50,00000;mm
Dimension : Final length;100,00000;mm
Test : Rate 1;4,00000;mm/min
General : Unique Identifier;"{AAFCEEAA-C881-4D3C-8DF6-96DE63448034}"

Time;Extension;Load;Strain 1
(sec);(mm);(N);(mm/mm)
0,00000;0,00000;19,29337;0,00029
2,20000;0,14667;89,88631;0,00115
4,40000;0,29330;89,69205;0,00126
6,60000;0,43997;89,51657;0,00131
8,80000;0,58664;133,45972;0,00183
11,00000;0,73333;202,04727;0,00276
13,20000;0,87997;267,36041;0,00369
15,40000;1,02667;326,34714;0,00459
17,60000;1,17330;381,27922;0,00548
19,80000;1,32000;438,34201;0,00639
22,00000;1,46664;488,12591;0,00724
24,20000;1,61333;535,18680;0,00808
26,40000;1,76000;581,34217;0,00891
28,60000;1,90666;625,24774;0,00973
30,80000;2,05336;668,19130;0,01056
33,00000;2,20000;710,50511;0,01138
35,20000;2,34666;751,03282;0,01221
37,40000;2,49330;792,18727;0,01305
39,60000;2,64000;831,42715;0,01390
41,80000;2,78666;869,21304;0,01473
44,00000;2,93333;907,30619;0,01559
46,20000;3,07997;944,65660;0,01647
48,40000;3,22666;982,10415;0,01737
50,60000;3,37330;1019,67705;0,01829
52,80000;3,52002;1054,47685;0,01924
55,00000;3,66666;1088,64689;0,02021
57,20000;3,81336;1122,00221;0,02119
59,40000;3,96005;1153,68115;0,02220
61,60000;4,10672;1184,91510;0,02322
63,80000;4,25339;1214,18759;0,02428
66,00000;4,40005;1242,56387;0,02534
68,20000;4,54669;1267,60621;0,02643
70,40000;4,69336;1292,28197;0,02755
72,60000;4,83999;1316,24639;0,02869
74,80000;4,98666;1337,55058;0,02985
77,00000;5,13330;1355,88739;0,03104
79,20000;5,27994;1373,23402;0,03226
81,40000;5,42663;1388,48750;0,03350
83,60000;5,57330;1402,94200;0,03477
85,80000;5,72002;1415,14046;0,03607
88,00000;5,86666;1425,43372;0,03740
90,20000;6,01335;1433,92533;0,03875
92,40000;6,16002;1440,09506;0,04013
94,60000;6,30669;1445,80724;0,04152
96,80000;6,45335;1448,42369;0,04294
99,00000;6,59999;1452,12738;0,04437
101,20000;6,74669;1453,32124;0,04583
103,40000;6,89333;1452,61930;0,04731
105,60001;7,03996;1451,99578;0,04880
107,80001;7,18663;1450,60765;0,05030
109,86801;7,32438;1447,05754;0,05173
112,06801;7,47107;1444,24057;0,05326
114,26801;7,61768;1440,42093;0,05480
116,46801;7,76441;1435,58607;0,05634
118,66801;7,91104;1431,31828;0,05790
120,86801;8,05774;1425,91000;0,05946
123,06801;8,20444;1421,09394;0,06103
125,26801;8,35104;1415,18433;0,06261
127,46801;8,49777;1408,41296;0,06419
129,66801;8,64441;1403,05171;0,06578
131,86801;8,79102;1396,61878;0,06736
134,06801;8,93777;1390,94098;0,06895
136,26801;9,08435;1384,13832;0,07054
138,46801;9,23107;1378,19424;0,07213
140,66801;9,37771;1372,66060;0,07373
142,86801;9,52438;1367,23034;0,07532
145,06801;9,67107;1361,40846;0,07692
147,26801;9,81777;1356,10355;0,07851
149,46801;9,96446;1349,91501;0,08011
151,66801;10,11113;1345,10836;0,08170
153,86801;10,25779;1339,68750;0,08329
156,06801;10,40446;1334,86204;0,08489
158,26801;10,55104;1329,71071;0,08648
160,46801;10,69777;1325,41796;0,08807
162,66801;10,84440;1321,22543;0,08967
164,86801;10,99101;1316,06776;0,09125
167,06801;11,13771;1311,72175;0,09285
169,26801;11,28432;1307,64199;0,09443
171,46801;11,43104;1302,54393;0,09602
173,66801;11,57765;1298,54567;0,09761
175,86801;11,72437;1294,85764;0,09919
178,06801;11,87107;1290,61183;0,10078
180,26801;12,01774;1285,84905;0,10236
182,46801;12,16440;1282,63729;0,10395
184,66801;12,31113;1278,76438;0,10553
186,86801;12,45776;1275,99128;0,10711
189,06801;12,60443;1272,63227;0,10869
191,26801;12,75104;1269,56776;0,11027
193,46801;12,89776;1266,15232;0,11185
195,66801;13,04434;1262,99066;0,11343
197,86801;13,19098;1259,50631;0,11500
200,06801;13,33773;1258,41592;0,11659
202,26801;13,48431;1254,41132;0,11816
204,46801;13,63107;1252,17726;0,11975
206,66801;13,77768;1250,31909;0,12132
208,86801;13,92437;1247,37993;0,12289
211,06801;14,07107;1244,95784;0,12447
213,26801;14,21768;1242,37277;0,12604
215,46801;14,36440;1240,18872;0,12761
217,66801;14,51109;1237,79168;0,12919
219,86801;14,65776;1235,36009;0,13076
222,06801;14,80443;1233,27328;0,13234
224,26801;14,95107;1231,77860;0,13391
226,46801;15,09776;1229,50068;0,13549
228,66801;15,24446;1227,09731;0,13706
230,86801;15,39104;1225,05426;0,13863
233,06801;15,53782;1222,75436;0,14020
235,26801;15,68434;1221,18453;0,14178
237,46801;15,83112;1219,47993;0,14335
239,66801;15,97773;1218,67154;0,14492
241,86801;16,12440;1215,90160;0,14650
244,06801;16,27106;1215,11817;0,14807
246,26801;16,41770;1213,58279;0,14965
248,46801;16,56440;1212,31694;0,15122
250,66801;16,71106;1210,24260;0,15279
252,86801;16,85773;1208,81377;0,15437
255,06801;17,00442;1207,58861;0,15594
257,26801;17,15103;1206,02185;0,15752
259,46801;17,29773;1205,70855;0,15910
261,66801;17,44442;1203,37727;0,16067
263,86801;17,59101;1201,85446;0,16225
266,06801;17,73778;1200,93320;0,16382
268,26801;17,88431;1198,84629;0,16540
270,46801;18,03109;1198,15702;0,16698
272,66801;18,17770;1197,16683;0,16856
274,86801;18,32439;1196,23309;0,17014
277,06801;18,47106;1195,77553;0,17172
279,26801;18,61770;1194,05845;0,17330
281,46801;18,76442;1193,71060;0,17488
283,66801;18,91106;1192,40405;0,17646
285,86801;19,05776;1190,42052;0,17804
288,06801;19,20439;1190,05395;0,17962
290,26801;19,35106;1189,52440;0,18120
292,46801;19,49773;1187,71009;0,18278
294,66801;19,64442;1187,56285;0,18437
296,86801;19,79100;1187,07716;0,18596
299,06801;19,93776;1186,14659;0,18755
301,26801;20,08434;1184,76162;0,18913
303,46801;20,23109;1184,15682;0,19072
305,66801;20,37770;1182,91602;0,19231
307,86801;20,52442;1183,00375;0,19390
310,06801;20,67109;1182,28933;0,19550
312,26801;20,81772;1182,13268;0,19709
314,46801;20,96448;1180,79465;0,19869
316,66802;21,11112;1180,93258;0,20028
318,86802;21,25778;1179,90794;0,20188
321,06802;21,40445;1180,02389;0,20347
323,26802;21,55109;1179,88279;0,20507
325,46802;21,69775;1178,78923;0,20667
327,66802;21,84442;1179,16213;0,20827
329,86802;21,99100;1178,24096;0,20987
332,06802;22,13770;1179,21541;0,21148
334,26802;22,28428;1178,01530;0,21309
336,46802;22,43106;1177,85241;0,21470
338,66802;22,57770;1178,83943;0,21631
340,86802;22,72436;1177,98708;0,21792
343,06802;22,87108;1177,94955;0,21953
345,26802;23,01767;1177,93381;0,22115
347,46802;23,16445;1177,66438;0,22277
349,66802;23,31111;1177,94015;0,22439
351,86802;23,45778;1178,68269;0,22601
354,06802;23,60442;1178,79240;0,22763
356,26802;23,75106;1179,40651;0,22925
358,46802;23,89772;1178,91459;0,23087
360,66802;24,04439;1178,94281;0,23250
362,86802;24,19100;1179,38463;0,23412
365,06802;24,33772;1180,29332;0,23576
367,26802;24,48430;1180,08340;0,23739
369,46802;24,63103;1179,96428;0,23903
371,66802;24,77772;1180,44056;0,24067
373,86802;24,92439;1180,69751;0,24230
376,06802;25,07108;1180,84475;0,24394
378,26802;25,21772;1181,77542;0,24559
380,46802;25,36444;1181,35558;0,24723
382,66802;25,51105;1181,63759;0,24889
384,86802;25,65775;1182,24854;0,25054
387,06802;25,80444;1182,63401;0,25219
389,26802;25,95108;1183,86233;0,25385
391,46802;26,09778;1183,52706;0,25550
393,66802;26,24444;1184,08166;0,25717
395,86802;26,39108;1184,68953;0,25883
398,06802;26,53778;1184,86816;0,26048
400,26802;26,68439;1184,89005;0,26218
402,46802;26,83111;1185,44158;0,26390
404,66802;26,97772;1186,22491;0,26561
406,86802;27,12439;1186,40978;0,26727
409,06802;27,27105;1187,12420;0,26894
411,26802;27,41769;1187,38115;0,27067
413,46802;27,56441;1188,24905;0,27238
415,66802;27,71105;1187,81356;0,27410
417,86802;27,85775;1188,66274;0,27579
420,06802;28,00439;1189,42102;0,27750
422,26802;28,15102;1188,91960;0,27922
424,46802;28,29775;1190,08841;0,28092
426,66802;28,44441;1191,23207;0,28264
428,86802;28,59105;1192,34137;0,28433
431,06802;28,73777;1192,70477;0,28604
433,26802;28,88433;1192,65150;0,28773
435,46802;29,03108;1193,21560;0,28944
437,66802;29,17772;1194,07726;0,29114
439,86802;29,32438;1194,86060;0,29282
442,06802;29,47105;1195,62205;0,29454
444,26802;29,61766;1195,56254;0,29622
446,46802;29,76441;1196,91612;0,29788
448,66802;29,91108;1197,69322;0,29961
450,86802;30,05775;1197,91254;0,30132
453,06802;30,20441;1198,71469;0,30302
455,26802;30,35105;1199,04056;0,30475
457,46802;30,49774;1199,84280;0,30642
459,66802;30,64441;1199,83964;0,30810
461,86802;30,79102;1200,34097;0,30979
464,06802;30,93774;1202,24925;0,31152
466,26802;31,08432;1201,54107;0,31319
468,46802;31,23108;1204,93146;0,31368
470,66802;31,37771;1209,17726;0,31317
472,86802;31,52441;1210,47758;0,31302
475,06802;31,67107;1212,33258;0,31288
477,26802;31,81774;1212,84649;0,31278
479,46802;31,96446;1213,40733;0,31266
481,66802;32,11113;1213,35406;0,31251
483,86802;32,25777;1213,48882;0,31225
486,06802;32,40449;1211,42706;0,31243
488,26802;32,55104;1208,08054;0,31326
490,46802;32,69777;1208,29670;0,16523
492,66802;32,84441;1208,41265;0,14678
494,86802;32,99099;1208,78238;0,14562
497,06802;33,13771;1208,90150;-0,00882
499,26802;33,28429;1209,05815;0,00039
501,46802;33,43107;1210,08279;0,00210
503,66802;33,57771;1211,26408;0,00209
505,86802;33,72438;1211,54608;0,00209
508,06802;33,87107;1212,29496;0,00208
510,26802;34,01771;1212,02869;0,00208
512,46802;34,16443;1212,78064;0,00207
514,66802;34,31110;1212,45477;0,00207
516,86802;34,45777;1213,69567;0,00207
519,06802;34,60443;1214,17195;0,00206
521,26802;34,75101;1214,04342;0,00206
523,46802;34,89771;1214,53851;0,00206
525,66802;35,04435;1214,88320;0,00205
527,86803;35,19104;1216,44055;0,00205
530,06803;35,33777;1216,90109;0,00205
532,26803;35,48435;1216,09587;0,00205
534,46803;35,63107;1217,13923;0,00205
536,66803;35,77765;1217,51837;0,00205
538,86803;35,92438;1218,25477;0,00204
541,06803;36,07104;1219,17604;0,00204
543,26803;36,21771;1218,84076;0,00204
545,46803;36,36446;1218,00406;0,00204
547,66803;36,51110;1218,75610;0,00204
549,86803;36,65774;1219,05692;0,00204
552,06803;36,80440;1218,43647;0,00204
554,26803;36,95104;1218,74670;0,00204
556,46803;37,09776;1216,69741;0,00204
558,66803;37,24443;1213,27890;0,00203
560,86803;37,39107;1208,49414;0,00203
563,06803;37,53782;1200,54148;0,00203
565,26803;37,68434;1180,31213;0,00203
566,58403;37,77206;620,11206;0,00203