Folder: DeSiPro_OmniUAV_2024/02_Appendices/Appendix_C_Experimental_Data_and_Analysis Reports/C_1_Materials_Tests/C_1_1_Tensile_tests/C_1_1_6_Resto Quanton 3D (part 2)

File: Specimen_RawData_5.csv
Text Inputs : Specimen label;"1"
Dimension : Length;50,00000;mm
Dimension : Final length;100,00000;mm
Test : Rate 1;4,00000;mm/min
General : Unique Identifier;"{34CBB513-7940-4DC4-8F08-6BC8C38636DF}"

Time;Extension;Load;Strain 1
(sec);(mm);(N);(mm/mm)
0,00000;0,00000;1,27332;0,00000
0,30000;0,01712;5,01149;0,00003
0,60000;0,03897;27,55963;0,00019
0,90000;0,05977;46,57638;0,00034
1,20000;0,08000;64,30844;0,00048
1,50000;0,10003;77,22756;0,00060
1,80000;0,12000;85,98234;0,00068
2,10000;0,14003;90,51014;0,00072
2,40000;0,15997;91,44078;0,00073
2,70000;0,18003;90,24068;0,00073
3,00000;0,20000;91,68831;0,00074
3,30000;0,21991;92,59074;0,00075
3,60000;0,24003;92,90408;0,00076
3,90000;0,26000;93,56211;0,00077
4,20000;0,28003;93,83785;0,00077
4,50000;0,30003;93,70311;0,00077
4,80000;0,32000;92,95736;0,00078
5,10000;0,34003;93,74698;0,00078
5,40000;0,35994;94,33606;0,00079
5,70000;0,38003;94,01646;0,00080
6,00000;0,39997;95,63330;0,00081
6,30000;0,41994;95,42649;0,00082
6,60000;0,44003;97,22508;0,00083
6,90000;0,46000;97,88623;0,00085
7,20000;0,48006;99,66602;0,00087
7,50000;0,50000;101,74661;0,00090
7,80000;0,51997;108,58688;0,00096
8,10000;0,54000;121,93214;0,00106
8,40000;0,56000;136,79084;0,00118
8,70000;0,58000;151,36440;0,00130
9,00000;0,59997;166,15418;0,00142
9,30000;0,61997;180,14805;0,00154
9,60000;0,64000;194,96916;0,00166
9,90000;0,66003;208,16715;0,00178
10,20000;0,68003;222,74384;0,00190
10,50000;0,70000;234,98612;0,00202
10,80000;0,71994;249,30276;0,00214
11,10000;0,74000;262,58847;0,00226
11,40000;0,76003;274,71483;0,00237
11,70000;0,77997;287,98489;0,00249
12,00000;0,79997;300,67840;0,00260
12,30000;0,81994;311,93052;0,00271
12,60000;0,84003;324,09136;0,00282
12,90000;0,86003;335,81976;0,00293
13,20000;0,88003;347,27871;0,00303
13,50000;0,90006;358,01381;0,00314
13,80000;0,91997;369,95844;0,00325
14,10000;0,94000;379,65013;0,00335
14,40000;0,96000;390,56072;0,00345
14,70000;0,98000;401,79091;0,00356
15,00000;0,99997;412,52286;0,00366
15,30000;1,01994;422,37439;0,00376
15,60000;1,04006;432,10052;0,00385
15,90000;1,06003;441,37859;0,00394
16,20000;1,08003;450,05819;0,00404
16,50000;1,10000;458,83805;0,00413
16,80000;1,11997;468,60492;0,00422
17,10000;1,14003;478,09607;0,00432
17,40000;1,15997;487,14229;0,00441
17,70000;1,18000;495,86575;0,00451
18,00000;1,19997;505,78616;0,00460
18,30000;1,21991;515,08928;0,00470
18,60000;1,24003;523,49628;0,00479
18,90000;1,26000;532,19781;0,00488
19,20000;1,28003;539,64281;0,00496
19,50000;1,30003;547,67067;0,00505
19,80000;1,32000;557,17435;0,00514
20,10000;1,34003;565,28989;0,00523
20,40000;1,35997;572,96995;0,00531
20,70000;1,38000;581,01029;0,00540
21,00000;1,39997;589,41417;0,00549
21,30000;1,41994;598,53243;0,00558
21,60000;1,44003;606,76392;0,00566
21,90000;1,46003;614,45022;0,00575
22,20000;1,48003;622,97941;0,00584
22,50000;1,49997;631,06990;0,00593
22,80000;1,51997;640,14117;0,00601
23,10000;1,54003;647,53294;0,00610
23,40000;1,56000;655,62031;0,00619
23,70000;1,57997;663,85809;0,00628
24,00000;1,59994;672,33713;0,00636
24,30000;1,61997;680,12369;0,00645
24,60000;1,64003;689,16674;0,00654
24,90000;1,66000;697,41081;0,00663
25,20000;1,68003;704,07875;0,00672
25,50000;1,70003;711,45794;0,00680
25,80000;1,71997;721,31571;0,00689
26,10000;1,74003;728,94874;0,00698
26,40000;1,76000;736,45017;0,00707
26,70000;1,77997;744,41219;0,00716
27,00000;1,79997;752,54031;0,00725
27,30000;1,81997;760,78121;0,00734
27,60000;1,84000;769,40437;0,00743
27,90000;1,86000;776,61439;0,00752
28,20000;1,88003;784,83960;0,00761
28,50000;1,90005;793,08050;0,00770
28,80000;1,92000;800,47855;0,00779
29,10000;1,94000;808,57221;0,00788
29,40000;1,95997;817,48050;0,00797
29,70000;1,97997;825,15115;0,00806
30,00000;2,00000;833,33254;0,00815
30,30000;2,01994;841,38857;0,00824
30,60000;2,04005;850,54757;0,00834
30,90000;2,06003;857,78581;0,00843
31,20000;2,08003;866,34625;0,00852
31,50000;2,10003;873,85401;0,00861
31,80000;2,11997;882,51159;0,00870
32,10000;2,14003;890,88101;0,00879
32,40000;2,15997;898,28847;0,00888
32,70000;2,18003;906,01230;0,00898
33,00000;2,20000;914,06833;0,00907
33,30000;2,21991;922,28111;0,00917
33,60000;2,24003;930,29635;0,00926
33,90000;2,26000;938,59369;0,00936
34,20000;2,28003;946,57447;0,00945
34,50000;2,30003;953,95064;0,00954
34,80000;2,32000;961,85626;0,00963
35,10000;2,34000;970,02191;0,00973
35,40000;2,35994;978,23776;0,00982
35,70000;2,38003;985,72979;0,00992
36,00000;2,40000;993,98009;0,01002
36,30000;2,41997;1002,49052;0,01011
36,60000;2,44000;1011,33613;0,01020
36,90000;2,45997;1018,80627;0,01030
37,20000;2,48003;1025,98807;0,01040
37,50000;2,50000;1034,21016;0,01049
37,80000;2,52000;1041,99983;0,01059
38,10000;2,54000;1050,67631;0,01068
38,40000;2,56000;1057,93020;0,01078
38,70000;2,58000;1066,61916;0,01088
39,00000;2,59997;1074,52171;0,01098
39,30000;2,61997;1082,02938;0,01107
39,60000;2,64003;1090,38623;0,01117
39,90000;2,66003;1098,21977;0,01127
40,20000;2,68003;1105,83091;0,01137
40,50000;2,70000;1114,13449;0,01147
40,80000;2,71997;1122,47560;0,01157
41,10000;2,74000;1130,63818;0,01167
41,40000;2,76003;1138,62213;0,01177
41,70000;2,77997;1146,04523;0,01187
42,00000;2,79997;1154,00730;0,01197
42,30000;2,81994;1161,96936;0,01207
42,60000;2,84003;1169,47386;0,01217
42,90000;2,86003;1176,94708;0,01227
43,20000;2,88003;1185,76139;0,01237
43,50000;2,90005;1192,37611;0,01248
43,80000;2,91997;1200,99615;0,01258
44,10000;2,94000;1209,11794;0,01268
44,40000;2,96000;1216,74165;0,01278
44,70000;2,98000;1225,00127;0,01289
45,00000;2,99997;1232,37744;0,01299
45,30000;3,01991;1240,01354;0,01309
45,60000;3,04005;1248,06333;0,01319
45,90000;3,06003;1255,73399;0,01330
46,20000;3,08002;1264,08767;0,01340
46,50000;3,10002;1271,82100;0,01351
46,80000;3,11997;1279,45403;0,01361
47,10000;3,14005;1287,21232;0,01371
47,40000;3,15997;1294,00557;0,01382
47,70000;3,18002;1303,07684;0,01392
48,00000;3,19997;1310,55014;0,01403
48,30000;3,21991;1317,03317;0,01413
48,60000;3,24005;1325,75035;0,01424
48,90000;3,26002;1333,64033;0,01434
49,20000;3,28002;1340,57775;0,01445
49,50000;3,30000;1348,65567;0,01456
49,80000;3,32000;1355,88134;0,01466
50,10000;3,34005;1364,29779;0,01477
50,40000;3,35997;1370,24187;0,01488
50,70000;3,37997;1379,30997;0,01499
51,00000;3,39997;1386,44483;0,01509
51,30000;3,41997;1394,82673;0,01520
51,60000;3,44002;1401,66068;0,01531
51,90000;3,46002;1408,46651;0,01542
52,20000;3,48002;1416,59463;0,01553
52,50000;3,49997;1424,19320;0,01564
52,80000;3,52000;1431,98911;0,01575
53,10000;3,54002;1440,06396;0,01586
53,40000;3,56000;1447,08911;0,01597
53,70000;3,57997;1455,44913;0,01609
54,00000;3,59997;1461,44964;0,01620
54,30000;3,61997;1470,15424;0,01631
54,60000;3,64002;1477,57418;0,01642
54,90000;3,66002;1484,31109;0,01653
55,20000;3,68002;1491,98174;0,01664
55,50000;3,70000;1499,22622;0,01675
55,80000;3,72000;1506,89054;0,01687
56,10000;3,74002;1514,51733;0,01698
56,40000;3,76000;1521,51734;0,01710
56,70000;3,77997;1528,71795;0,01721
57,00000;3,79997;1535,43288;0,01732
57,30000;3,81997;1542,91559;0,01744
57,60000;3,84002;1550,57991;0,01756
57,90000;3,86002;1556,94075;0,01767
58,20000;3,88002;1565,18482;0,01779
58,50000;3,90005;1571,75548;0,01791
58,80000;3,91997;1578,93430;0,01802
59,10000;3,94000;1586,62684;0,01814
59,40000;3,95997;1593,23197;0,01825
59,70000;3,97997;1600,35435;0,01838
60,00000;4,00000;1607,16958;0,01850
60,30000;4,01994;1614,10067;0,01862
60,60000;4,04005;1622,03759;0,01874
60,90000;4,06002;1628,64607;0,01886
61,20000;4,08002;1635,24505;0,01897
61,50000;4,10005;1642,15732;0,01909
61,80000;4,11999;1649,64944;0,01921
62,10000;4,14002;1657,28871;0,01933
62,40000;4,15997;1663,75283;0,01946
62,70000;4,18002;1670,76867;0,01958
63,00000;4,19997;1677,14208;0,01970
63,30000;4,21994;1683,96663;0,01982
63,60000;4,24000;1690,85711;0,01994
63,90000;4,26002;1697,86345;0,02007
64,20000;4,28005;1704,11766;0,02019
64,50000;4,30002;1711,44046;0,02031
64,68200;4,31210;1164,96179;0,03018
64,68600;4,31236;965,43776;0,03416

File: Specimen_RawData_10.csv
Text Inputs : Specimen label;"1"
Dimension : Length;50,00000;mm
Dimension : Final length;100,00000;mm
Test : Rate 1;4,00000;mm/min
General : Unique Identifier;"{26D6FC42-49AE-4369-8BC2-B907AACDD171}"

Time;Extension;Load;Strain 1
(sec);(mm);(N);(mm/mm)
0,00000;0,00000;0,50007;0,00000
0,30000;0,01715;4,67066;0,00001
0,60000;0,03900;28,23402;0,00019
0,90000;0,05977;48,28481;0,00034
1,20000;0,08000;66,90676;0,00048
1,50000;0,10003;85,41590;0,00062
1,80000;0,11997;99,58212;0,00075
2,10000;0,14003;112,13149;0,00088
2,40000;0,15997;116,38355;0,00094
2,70000;0,18003;117,16691;0,00097
3,00000;0,20000;118,03487;0,00100
3,30000;0,21991;119,10649;0,00102
3,60000;0,24003;118,52995;0,00103
3,90000;0,26000;118,60202;0,00105
4,20000;0,28003;119,44490;0,00106
4,50000;0,30000;119,78018;0,00107
4,80000;0,32000;120,60427;0,00108
5,10000;0,34003;120,19693;0,00108
5,40000;0,35997;120,39120;0,00109
5,70000;0,38003;120,84555;0,00110
6,00000;0,39997;121,61951;0,00110
6,30000;0,41994;121,51296;0,00111
6,60000;0,44003;122,93868;0,00111
6,90000;0,46000;124,14504;0,00112
7,20000;0,48006;127,63882;0,00114
7,50000;0,50000;131,39580;0,00115
7,80000;0,51997;140,26025;0,00120
8,10000;0,54000;149,76707;0,00126
8,40000;0,56000;162,11589;0,00134
8,70000;0,58000;174,23598;0,00143
9,00000;0,59997;186,51275;0,00151
9,30000;0,61997;199,56974;0,00160
9,60000;0,64000;212,67999;0,00170
9,90000;0,66003;226,05658;0,00180
10,20000;0,68003;239,13863;0,00190
10,50000;0,70000;253,72473;0,00201
10,80000;0,71997;266,60936;0,00211
11,10000;0,74000;281,18293;0,00222
11,40000;0,76003;293,67590;0,00233
11,70000;0,77997;305,89940;0,00244
12,00000;0,80000;319,01905;0,00254
12,30000;0,81994;331,92877;0,00265
12,60000;0,84003;345,23641;0,00276
12,90000;0,86003;357,71371;0,00288
13,20000;0,88003;370,99945;0,00299
13,50000;0,90006;384,02509;0,00310
13,80000;0,91997;396,22979;0,00321
14,10000;0,94003;407,99580;0,00331
14,40000;0,96000;417,96323;0,00341
14,70000;0,97997;428,88634;0,00351
15,00000;0,99997;439,71231;0,00360
15,30000;1,01994;450,58532;0,00370
15,60000;1,04006;461,42698;0,00379
15,90000;1,06003;470,83348;0,00389
16,20000;1,08003;481,24902;0,00398
16,50000;1,10000;490,94697;0,00408
16,80000;1,11997;500,92377;0,00418
17,10000;1,14003;511,04478;0,00427
17,40000;1,15997;520,43875;0,00436
17,70000;1,18003;529,72939;0,00445
18,00000;1,19997;539,32704;0,00454
18,30000;1,21988;548,60199;0,00464
18,60000;1,24006;557,86753;0,00473
18,90000;1,26003;567,35557;0,00482
19,20000;1,28003;576,71196;0,00491
19,50000;1,30003;586,82980;0,00500
19,80000;1,32000;595,45925;0,00509
20,10000;1,34006;603,91636;0,00518
20,40000;1,35997;612,86543;0,00527
20,70000;1,37997;620,78671;0,00536
21,00000;1,39997;630,40322;0,00544
21,30000;1,41997;638,19601;0,00552
21,60000;1,44003;647,81876;0,00561
21,90000;1,46003;655,64923;0,00569
22,20000;1,48003;665,01503;0,00577
22,50000;1,49997;674,01109;0,00586
22,80000;1,52000;681,76319;0,00594
23,10000;1,54003;690,42086;0,00603
23,40000;1,56000;698,53952;0,00611
23,70000;1,57997;706,89637;0,00619
24,00000;1,59997;715,72009;0,00628
24,30000;1,61997;724,43732;0,00637
24,60000;1,64003;732,78476;0,00645
24,90000;1,66003;740,31749;0,00654
25,20000;1,68003;748,90624;0,00663
25,50000;1,70000;757,85215;0,00671
25,80000;1,71997;765,40997;0,00680
26,10000;1,74003;773,82950;0,00688
26,40000;1,76000;782,10486;0,00697
26,70000;1,77997;790,46795;0,00706
27,00000;1,79997;799,23533;0,00714
27,30000;1,81997;807,58901;0,00723
27,60000;1,84003;816,25609;0,00732
27,90000;1,86000;823,66038;0,00741
28,20000;1,88003;832,75978;0,00750
28,50000;1,90008;840,70927;0,00758
28,80000;1,91997;849,24791;0,00767
29,10000;1,94000;858,10926;0,00776
29,40000;1,95997;866,44096;0,00785
29,70000;1,97997;874,55660;0,00794
30,00000;2,00000;884,47072;0,00803
30,30000;2,01994;892,11315;0,00811
30,60000;2,04005;900,85538;0,00820
30,90000;2,06000;909,18401;0,00830
31,20000;2,08003;918,73789;0,00838
31,50000;2,10003;926,60906;0,00848
31,80000;2,11997;933,90364;0,00856
32,10000;2,14003;943,14730;0,00865
32,40000;2,15997;951,71714;0,00874
32,70000;2,18003;961,07358;0,00884
33,00000;2,19997;968,75988;0,00893
33,30000;2,21991;977,45825;0,00902
33,60000;2,24003;984,93779;0,00911
33,90000;2,26003;994,00906;0,00921
34,20000;2,28003;1003,38422;0,00930
34,50000;2,30003;1011,85078;0,00939
34,80000;2,32000;1019,61540;0,00948
35,10000;2,34000;1028,13831;0,00958
35,40000;2,35994;1035,83084;0,00967
35,70000;2,38003;1045,48177;0,00976
36,00000;2,40000;1053,70702;0,00985
36,30000;2,41994;1062,49629;0,00995
36,60000;2,44000;1070,84373;0,01004
36,90000;2,46000;1079,32594;0,01014
37,20000;2,48005;1087,68595;0,01023
37,50000;2,50000;1095,70120;0,01032
37,80000;2,51997;1104,11132;0,01042
38,10000;2,54000;1113,11367;0,01051
38,40000;2,56000;1120,95661;0,01061
38,70000;2,58000;1129,76786;0,01070
39,00000;2,60000;1138,21244;0,01080
39,30000;2,61997;1146,43136;0,01090
39,60000;2,64000;1154,48432;0,01099
39,90000;2,66003;1163,26725;0,01109
40,20000;2,68003;1171,48627;0,01119
40,50000;2,70000;1179,89946;0,01128
40,80000;2,71997;1187,61715;0,01138
41,10000;2,74000;1196,52543;0,01148
41,40000;2,76003;1204,80713;0,01158
41,70000;2,77997;1213,22665;0,01168
42,00000;2,79997;1220,92860;0,01177
42,30000;2,81994;1229,26030;0,01187
42,60000;2,84003;1238,08412;0,01197
42,90000;2,86005;1246,33126;0,01207
43,20000;2,88003;1253,38146;0,01217
43,50000;2,90005;1262,50284;0,01227
43,80000;2,91997;1270,75007;0,01237
44,10000;2,94000;1279,65519;0,01246
44,40000;2,96000;1286,81194;0,01256
44,70000;2,98000;1295,48218;0,01266
45,00000;2,99997;1304,19312;0,01276
45,30000;3,01994;1312,39956;0,01286
45,60000;3,04005;1320,08586;0,01296
45,90000;3,06003;1328,79363;0,01307
46,20000;3,08002;1336,55509;0,01317
46,50000;3,10002;1344,49834;0,01327
46,80000;3,11997;1353,14036;0,01337
47,10000;3,14003;1361,52226;0,01347
47,40000;3,15997;1368,93280;0,01357
47,70000;3,18002;1377,41808;0,01368
48,00000;3,19997;1384,65948;0,01378
48,30000;3,21991;1392,93484;0,01388
48,60000;3,24005;1400,65560;0,01399
48,90000;3,26000;1408,89334;0,01409
49,20000;3,28002;1417,32544;0,01419
49,50000;3,30000;1425,07441;0,01429
49,80000;3,32000;1433,04579;0,01440
50,10000;3,34002;1440,72901;0,01450
50,40000;3,35997;1447,67892;0,01461
50,70000;3,38000;1456,19558;0,01471
51,00000;3,39997;1465,21982;0,01482
51,30000;3,41994;1473,06910;0,01492
51,60000;3,44002;1480,64569;0,01503
51,90000;3,46002;1488,79569;0,01514
52,20000;3,48002;1496,69200;0,01525
52,50000;3,49997;1504,27483;0,01535
52,80000;3,52000;1512,60039;0,01546
53,10000;3,54002;1520,48403;0,01556
53,40000;3,56000;1527,97299;0,01567
53,70000;3,57997;1535,64354;0,01578
54,00000;3,59994;1543,39252;0,01589
54,30000;3,62000;1551,35142;0,01600
54,60000;3,64002;1559,45765;0,01610
54,90000;3,66002;1567,48220;0,01621
55,20000;3,68002;1574,41646;0,01632
55,50000;3,70000;1581,90541;0,01643
55,80000;3,71997;1589,80470;0,01654
56,10000;3,74002;1597,47228;0,01665
56,40000;3,76000;1605,16482;0,01676
56,70000;3,77997;1611,84836;0,01687
57,00000;3,79997;1620,14887;0,01698
57,30000;3,81994;1627,53444;0,01709
57,60000;3,84002;1635,48067;0,01721
57,90000;3,86002;1643,53680;0,01732
58,20000;3,88002;1650,41462;0,01743
58,50000;3,90005;1656,93220;0,01754
58,80000;3,91997;1664,64355;0,01765
59,10000;3,94000;1673,39519;0,01777
59,40000;3,95997;1679,80306;0,01788
59,70000;3,97997;1686,97536;0,01799
60,00000;4,00002;1694,58333;0,01811
60,30000;4,01994;1702,78680;0,01822
60,60000;4,04005;1710,42290;0,01834
60,90000;4,06002;1717,96810;0,01845
61,20000;4,08002;1724,54212;0,01857
61,50000;4,10002;1731,11297;0,01868
61,80000;4,11997;1738,15992;0,01880
62,10000;4,14002;1746,55747;0,01892
62,40000;4,15999;1752,96851;0,01903
62,70000;4,18002;1760,88978;0,01915
63,00000;4,19997;1767,26002;0,01927
63,30000;4,21991;1773,98752;0,01938
63,60000;4,24002;1781,83988;0,01950
63,90000;4,26002;1788,80244;0,01962
64,20000;4,28005;1794,55541;0,01974
64,50000;4,29999;1801,37679;0,01986
64,80000;4,31999;1808,45521;0,01998
65,10000;4,34002;1816,35767;0,02010
65,40000;4,35994;1822,52750;0,02022
65,70000;4,38002;1829,36452;0,02034
66,00000;4,39999;1836,61524;0,02046
66,30000;4,41994;1842,69100;0,02058
66,60000;4,44002;1848,86083;0,02070
66,90000;4,45999;1856,50624;0,02083
67,20000;4,48005;1862,93926;0,02095
67,50000;4,49999;1869,46932;0,02107
67,80000;4,51997;1876,14653;0,02119
68,10000;4,54002;1883,16237;0,02132
68,40000;4,55999;1889,22863;0,02145
68,70000;4,57999;1897,20020;0,02157
69,00000;4,59997;1902,88723;0,02170
69,30000;4,61997;1909,21370;0,02182
69,60000;4,64002;1916,20737;0,02195
69,90000;4,66002;1922,84398;0,02208
70,20000;4,68005;1929,06074;0,02220
70,50000;4,69999;1935,54386;0,02233
70,80000;4,71997;1941,52240;0,02246
71,10000;4,73999;1948,52240;0,02258
71,40000;4,76002;1954,46350;0,02271
71,70000;4,77997;1960,80245;0,02284
72,00000;4,79994;1966,50829;0,02297
72,30000;4,81994;1972,86289;0,02309
72,60000;4,83999;1979,50266;0,02322
72,90000;4,86002;1984,69795;0,02336
73,20000;4,88005;1991,14326;0,02349
73,50000;4,90005;1996,59541;0,02362
73,80000;4,91997;2002,40482;0,02375
74,10000;4,93999;2008,80654;0,02388
74,40000;4,95999;2014,45594;0,02401
74,70000;4,97999;2020,19028;0,02415
75,00000;4,99999;2025,84919;0,02428
75,30000;5,01994;2031,38273;0,02441
75,60000;5,04005;2037,52741;0,02454
75,90000;5,06002;2042,74766;0,02468
76,20000;5,08002;2048,63232;0,02481
76,50000;5,10002;2053,55175;0,02495
76,80000;5,11997;2059,22648;0,02508
77,10000;5,14005;2065,18304;0,02522
77,40000;5,15999;2070,72608;0,02535
77,70000;5,17999;2075,55164;0,02549
78,00000;5,19999;2080,72178;0,02563
78,30000;5,21991;2086,49039;0,02576
78,60000;5,24002;2091,90492;0,02591
78,90000;5,26002;2097,29448;0,02604
79,20000;5,28002;2101,86616;0,02618
79,50000;5,30002;2107,19611;0,02632
79,80000;5,31999;2112,28784;0,02647
80,10000;5,34005;2117,28252;0,02661
80,40000;5,35997;2122,67209;0,02675
80,57000;5,37136;1444,14753;0,03917
80,57400;5,37165;1195,71704;0,04422