Folder: DeSiPro_OmniUAV_2024/02_Appendices/Appendix_C_Experimental_Data_and_Analysis Reports/C_1_Materials_Tests/C_1_1_Tensile_tests/C_1_1_3_Smooth Comum

Note: 02_Appendices/Appendix_C_Experimental_Data_and_Analysis Reports/C_1_Materials_Tests/README.md
# Appendix_C-1_Materials
This repository stores the dataset of materials to tensile and flexion tests.
The directory is separated into two, namely tensile tests and flexion tests.
Each directory has seven data sets, with ten to twelve experiments each, relating to six types of resins used in additive manufacturing processes. 
These data are useful for evaluating the mechanical behavior of these materials.

File: Specimen_RawData_3.csv
Text Inputs : Specimen label;"1"
Dimension : Length;50,00000;mm
Dimension : Final length;100,00000;mm
Test : Rate 1;2,00000;mm/min
General : Unique Identifier;"{288E8DE0-B442-4EAD-A251-CCDBB823139B}"

Time;Extension;Load;Strain 1
(sec);(mm);(N);(mm/mm)
0,00000;0,00000;-1,90374;-0,00003
0,50000;0,01573;3,06588;0,00000
1,00000;0,03325;21,77556;0,00013
1,50000;0,05006;37,98477;0,00026
2,00000;0,06658;49,71318;0,00036
2,50000;0,08336;52,31393;0,00041
3,00000;0,10003;53,98091;0,00044
3,50000;0,11667;56,35291;0,00046
4,00000;0,13325;56,54405;0,00048
4,50000;0,15006;56,95140;0,00050
5,00000;0,16667;58,83458;0,00052
5,50000;0,18336;59,09465;0,00053
6,00000;0,19997;60,09422;0,00054
6,50000;0,21661;60,47963;0,00055
7,00000;0,23339;61,18151;0,00056
7,50000;0,25006;61,77374;0,00057
8,00000;0,26658;62,25628;0,00058
8,50000;0,28339;62,06514;0,00058
9,00000;0,30003;63,87626;0,00059
9,50000;0,31667;64,00787;0,00059
10,00000;0,33328;64,54368;0,00060
10,50000;0,35006;66,94389;0,00061
11,00000;0,36667;67,76798;0,00062
11,50000;0,38339;71,49049;0,00064
12,00000;0,39994;76,32537;0,00066
12,50000;0,41667;80,74036;0,00069
13,00000;0,43336;90,15317;0,00075
13,50000;0,45003;98,87976;0,00081
14,00000;0,46661;108,17037;0,00088
14,50000;0,48336;118,41040;0,00095
15,00000;0,50003;130,07928;0,00104
15,50000;0,51669;140,48539;0,00113
16,00000;0,53330;152,02892;0,00122
16,50000;0,55003;162,77031;0,00131
17,00000;0,56667;172,48706;0,00140
17,50000;0,58339;183,28798;0,00149
18,00000;0,59994;194,50565;0,00158
18,50000;0,61667;205,12168;0,00168
19,00000;0,63336;216,70284;0,00178
19,50000;0,65003;228,84172;0,00188
20,00000;0,66664;239,91524;0,00199
20,50000;0,68336;251,73451;0,00209
21,00000;0,70003;263,61961;0,00220
21,50000;0,71669;274,18865;0,00231
22,00000;0,73328;285,64131;0,00242
22,50000;0,75006;297,70813;0,00253
23,00000;0,76669;308,48400;0,00264
23,50000;0,78336;318,77104;0,00274
24,00000;0,79997;330,47437;0,00285
24,50000;0,81669;341,31289;0,00296
25,00000;0,83333;352,49610;0,00307
25,50000;0,85006;364,78539;0,00317
26,00000;0,86658;374,43948;0,00328
26,50000;0,88333;385,04298;0,00339
27,00000;0,90006;395,46788;0,00350
27,50000;0,91669;405,90530;0,00360
28,00000;0,93322;416,55898;0,00371
28,50000;0,95008;425,95924;0,00382
29,00000;0,96669;436,66931;0,00393
29,50000;0,98333;447,04718;0,00403
30,00000;1,00000;456,06205;0,00413
30,50000;1,01667;467,19201;0,00424
31,00000;1,03333;476,24446;0,00434
31,50000;1,05006;486,14293;0,00445
32,00000;1,06661;496,84048;0,00455
32,50000;1,08336;505,75817;0,00466
33,00000;1,10008;515,97003;0,00476
33,50000;1,11664;525,71185;0,00487
34,00000;1,13325;534,39769;0,00497
34,50000;1,15006;544,13010;0,00507
35,00000;1,16667;553,60561;0,00517
35,50000;1,18339;563,38189;0,00527
36,00000;1,20000;572,09595;0,00538
36,50000;1,21664;581,09830;0,00548
37,00000;1,23336;590,06927;0,00558
37,50000;1,25003;598,66114;0,00568
38,00000;1,26655;607,16211;0,00578
38,50000;1,28339;616,13000;0,00588
39,00000;1,30008;624,30194;0,00598
39,50000;1,31667;633,55183;0,00608
40,00000;1,33325;641,80838;0,00617
40,50000;1,35006;648,62045;0,00626
41,00000;1,36667;656,34437;0,00635
41,50000;1,38345;663,69539;0,00644
42,00000;1,39994;670,27872;0,00653
42,50000;1,41664;677,60465;0,00661
43,00000;1,43333;684,36661;0,00670
43,50000;1,45003;692,14064;0,00678
44,00000;1,46658;698,91196;0,00687
44,50000;1,48339;706,86457;0,00696
45,00000;1,50003;712,89330;0,00705
45,50000;1,51672;720,96498;0,00713
46,00000;1,53327;727,69560;0,00722
46,50000;1,55000;735,18134;0,00730
47,00000;1,56669;741,55475;0,00739
47,50000;1,58342;748,86815;0,00748
48,00000;1,59994;755,34182;0,00756
48,50000;1,61669;762,83696;0,00765
49,00000;1,63333;768,73405;0,00774
49,50000;1,65003;777,18492;0,00782
50,00000;1,66664;783,82464;0,00792
50,50000;1,68336;792,05930;0,00801
51,00000;1,70003;799,02178;0,00810
51,50000;1,71666;806,48558;0,00819
52,00000;1,73327;813,15031;0,00828
52,50000;1,75003;821,62628;0,00837
53,00000;1,76669;828,08109;0,00846
53,50000;1,78333;836,14653;0,00856
54,00000;1,79997;843,08088;0,00865
54,50000;1,81669;851,14939;0,00874
55,00000;1,83330;857,25021;0,00883
55,50000;1,85005;864,50409;0,00892
56,00000;1,86664;871,64510;0,00901
56,50000;1,88336;877,91514;0,00910
57,00000;1,90003;885,03109;0,00919
57,50000;1,91666;892,68610;0,00928
58,00000;1,93325;899,16289;0,00937
58,50000;1,95008;905,83712;0,00946
59,00000;1,96669;913,22567;0,00956
59,50000;1,98336;919,22618;0,00965
60,00000;1,99997;926,63988;0,00974
60,50000;2,01666;932,64664;0,00983
61,00000;2,03330;939,74387;0,00991
61,50000;2,05005;945,19295;0,01000
62,00000;2,06658;951,95798;0,01009
62,50000;2,08336;958,38467;0,01018
63,00000;2,10008;964,85205;0,01026
63,50000;2,11666;970,90583;0,01035
64,00000;2,13325;977,61136;0,01043
64,50000;2,15005;983,50532;0,01052
65,00000;2,16666;989,86300;0,01061
65,50000;2,18336;995,91054;0,01070
66,00000;2,19997;1003,12373;0,01079
66,50000;2,21664;1009,34980;0,01088
67,00000;2,23336;1015,25942;0,01097
67,50000;2,25008;1021,33825;0,01105
68,00000;2,26658;1028,11586;0,01114
68,50000;2,28336;1034,25113;0,01123
69,00000;2,30005;1041,01617;0,01132
69,50000;2,31666;1046,98539;0,01141
70,00000;2,33325;1052,82292;0,01149
70,50000;2,35005;1058,62292;0,01158
71,00000;2,36666;1065,31903;0,01167
71,50000;2,38339;1071,13784;0,01176
72,00000;2,39994;1077,64285;0,01185
72,50000;2,41664;1083,79060;0,01194
73,00000;2,43336;1089,68774;0,01203
73,50000;2,45003;1095,44694;0,01212
74,00000;2,46661;1102,13049;0,01221
74,50000;2,48336;1107,89286;0,01230
75,00000;2,50003;1113,94357;0,01239
75,50000;2,51669;1120,09132;0,01248
76,00000;2,53327;1126,02599;0,01257
76,50000;2,55003;1132,28662;0,01266
77,00000;2,56666;1138,05840;0,01275
77,50000;2,58339;1143,73304;0,01284
78,00000;2,59994;1150,47926;0,01293
78,50000;2,61666;1156,18529;0,01302
79,00000;2,63336;1162,37067;0,01311
79,50000;2,65005;1168,24582;0,01320
80,00000;2,66664;1174,77588;0,01330
80,50000;2,68336;1179,98989;0,01339
81,00000;2,70003;1186,30370;0,01348
81,50000;2,71672;1192,30114;0,01357
82,00000;2,73324;1197,95697;0,01366
82,50000;2,75003;1203,47179;0,01376
83,00000;2,76669;1210,28386;0,01385
83,50000;2,78336;1216,16842;0,01394
84,00000;2,79997;1220,99388;0,01403
84,50000;2,81669;1227,61484;0,01413
85,00000;2,83330;1233,76260;0,01422
85,50000;2,85003;1239,71608;0,01432
86,00000;2,86661;1245,80124;0,01441
86,50000;2,88333;1250,94634;0,01450
87,00000;2,90005;1256,55206;0,01460
87,50000;2,91669;1263,34531;0,01469
88,00000;2,93324;1268,40267;0,01478
88,50000;2,95005;1274,38745;0,01488
89,00000;2,96669;1280,64184;0,01498
89,50000;2,98333;1285,60197;0,01507
90,00000;3,00000;1291,92527;0,01517
90,50000;3,01666;1298,43969;0,01526
91,00000;3,03333;1303,02701;0,01536
91,50000;3,05005;1308,54184;0,01545
92,00000;3,06661;1314,82435;0,01555
92,50000;3,08336;1320,20758;0,01565
93,00000;3,10008;1325,75063;0,01575
93,50000;3,11666;1331,60073;0,01584
94,00000;3,13322;1336,90247;0,01594
94,50000;3,15005;1342,48305;0,01604
95,00000;3,16666;1348,63397;0,01614
95,50000;3,18336;1353,54716;0,01624
96,00000;3,20000;1360,02395;0,01633
96,50000;3,21663;1365,42600;0,01643
97,00000;3,23336;1370,96280;0,01653
97,50000;3,25005;1376,18622;0,01663
98,00000;3,26658;1381,99870;0,01673
98,50000;3,28336;1387,55115;0,01683
99,00000;3,30005;1393,34481;0,01693
99,50000;3,31666;1397,92589;0,01703
100,00000;3,33324;1404,11751;0,01714
100,50000;3,35002;1409,63243;0,01724
101,00000;3,36669;1415,30074;0,01734
101,50000;3,38341;1419,88806;0,01744
102,00000;3,39991;1425,52825;0,01754
102,50000;3,41666;1430,97416;0,01764
103,00000;3,43336;1436,58295;0,01775
103,50000;3,45005;1442,30779;0,01785
104,00000;3,46658;1447,34941;0,01796
104,50000;3,48339;1452,72948;0,01806
105,00000;3,50002;1458,50759;0,01816
105,50001;3,51669;1463,47713;0,01827
106,00001;3,53327;1468,59717;0,01837
106,50001;3,55002;1473,88643;0,01847
107,00001;3,56669;1479,51404;0,01858
107,50001;3,58339;1483,97600;0,01868
108,00001;3,59997;1489,80739;0,01878
108,50001;3,61663;1495,23756;0,01889
109,00001;3,63336;1500,94666;0,01900
109,50001;3,65005;1506,22334;0,01910
110,00001;3,66663;1511,39665;0,01921
110,50001;3,68336;1515,67375;0,01932
111,00001;3,70000;1521,87487;0,01942
111,50001;3,71666;1526,45586;0,01953
112,00001;3,73327;1531,70750;0,01964
112,50001;3,75005;1536,94656;0,01975
113,00001;3,76669;1541,56210;0,01986
113,50001;3,78333;1546,80125;0,01997
114,00001;3,80000;1552,04348;0,02007
114,50001;3,81669;1557,46741;0,02018
115,00001;3,83330;1561,71005;0,02029
115,50001;3,85005;1567,01170;0,02041
116,00001;3,86661;1571,99390;0,02052
116,50001;3,88336;1577,25178;0,02063
117,00001;3,90005;1582,49084;0,02074
117,50001;3,91666;1587,17856;0,02085
118,00001;3,93324;1592,31741;0,02097
118,50001;3,95008;1596,92653;0,02108
119,00001;3,96669;1602,54799;0,02119
119,50001;3,98333;1606,83133;0,02131
120,00001;3,99994;1611,43113;0,02142
120,50001;4,01669;1616,29114;0,02153
121,00001;4,03333;1621,26385;0,02165
121,50001;4,05005;1626,35576;0,02176
122,00001;4,06660;1630,76762;0,02188
122,50001;4,08336;1635,71518;0,02199
123,00001;4,10005;1640,55321;0,02211
123,50001;4,11666;1645,33798;0,02222
124,00001;4,13321;1649,53675;0,02233
124,50001;4,15008;1654,57539;0,02245
125,00001;4,16666;1659,61068;0,02257
125,50001;4,18333;1664,12611;0,02269
126,00001;4,19997;1668,76353;0,02281
126,50001;4,21663;1672,66466;0,02292
127,00001;4,23336;1678,13562;0,02304
127,50001;4,25005;1682,58511;0,02316
128,00001;4,26658;1686,61159;0,02328
128,50001;4,28339;1691,34606;0,02340
129,00001;4,30005;1696,58829;0,02352
129,50001;4,31666;1699,73746;0,02364
130,00001;4,33324;1704,82919;0,02376
130,50001;4,35005;1708,78042;0,02388
131,00001;4,36666;1714,34544;0,02400
131,50001;4,38339;1717,56353;0,02412
132,00001;4,39997;1721,83756;0,02424
132,50001;4,41660;1725,87335;0,02437
133,00001;4,43336;1730,62980;0,02449
133,50001;4,45002;1734,71272;0,02461
134,00001;4,46660;1738,56057;0,02473
134,50001;4,48336;1743,41425;0,02486
135,00001;4,50005;1747,50965;0,02498
135,50001;4,51672;1751,42642;0,02511
136,00001;4,53330;1755,53430;0,02523
136,50001;4,55002;1759,34136;0,02536
137,00001;4,56666;1763,77520;0,02548
137,50001;4,58336;1767,41630;0,02561
137,93801;4,59786;1497,71608;0,02728
137,94801;4,59820;976,96586;0,03011

File: Specimen_RawData_4.csv
Text Inputs : Specimen label;"1"
Dimension : Length;50,00000;mm
Dimension : Final length;100,00000;mm
Test : Rate 1;2,00000;mm/min
General : Unique Identifier;"{52134FE5-1066-4B6D-821D-409424F962F6}"

Time;Extension;Load;Strain 1
(sec);(mm);(N);(mm/mm)
0,00000;0,00000;28,14633;0,00028
0,60000;0,01926;35,66968;0,00033
1,20000;0,03994;54,35116;0,00048
1,80000;0,06003;64,82621;0,00058
2,40000;0,08003;67,50842;0,00062
3,00000;0,10006;68,27611;0,00064
3,60000;0,11997;70,12796;0,00066
4,20000;0,14003;69,52321;0,00068
4,80000;0,16000;71,19332;0,00070
5,40000;0,17997;72,60650;0,00071
6,00000;0,19997;71,70407;0,00072
6,60000;0,21991;72,10829;0,00073
7,20000;0,24003;72,49370;0,00073
7,80000;0,26003;72,65350;0,00074
8,40000;0,28003;73,41492;0,00075
9,00000;0,30006;73,64367;0,00075
9,60000;0,32000;75,17592;0,00076
10,20000;0,34000;75,43286;0,00078
10,80000;0,36003;77,98346;0,00080
11,40000;0,38006;81,93784;0,00082
12,00000;0,39997;87,90701;0,00087
12,60000;0,41991;96,14479;0,00093
13,20000;0,44000;106,84858;0,00102
13,80000;0,46003;118,45165;0,00112
14,40000;0,48003;129,84165;0,00122
15,00000;0,50006;142,97697;0,00133
15,60000;0,52003;155,40414;0,00144
16,20000;0,54003;166,93828;0,00155
16,80000;0,56000;178,42855;0,00166
17,40000;0,58000;190,93718;0,00178
18,00000;0,59997;202,21125;0,00189
18,60000;0,61994;216,20512;0,00201
19,20000;0,63997;227,35386;0,00213
19,80000;0,66003;239,82488;0,00225
20,40000;0,68003;252,51526;0,00238
21,00000;0,70003;263,98359;0,00250
21,60000;0,72006;276,46404;0,00262
22,20000;0,74000;287,94489;0,00274
22,80000;0,76003;298,72388;0,00287
23,40000;0,78000;311,19180;0,00299
24,00000;0,79997;322,69459;0,00311
24,60000;0,81994;334,16294;0,00323
25,20000;0,83994;345,38372;0,00335
25,80000;0,86003;355,42010;0,00347
26,40000;0,88003;366,64088;0,00359
27,00000;0,90006;377,37601;0,00370
27,60000;0,92003;388,47772;0,00382
28,20000;0,94000;398,49840;0,00394
28,80000;0,96003;408,71650;0,00406
29,40000;0,97997;419,70857;0,00417
30,00000;0,99997;429,48173;0,00429
30,60000;1,01991;440,47376;0,00440
31,20000;1,03994;450,00878;0,00451
31,80000;1,06006;460,01696;0,00463
32,40000;1,08003;469,42350;0,00474
33,00000;1,10008;480,52524;0,00486
33,60000;1,11997;489,28629;0,00497
34,20000;1,14000;498,95602;0,00509
34,80000;1,16000;508,54119;0,00520
35,40000;1,17997;518,34881;0,00531
36,00000;1,20000;527,92458;0,00543
36,60000;1,21991;537,67576;0,00554
37,20000;1,24000;547,35178;0,00565
37,80000;1,26003;556,96513;0,00577
38,40000;1,28003;566,41558;0,00588
39,00000;1,30008;576,95014;0,00600
39,60000;1,32000;586,56349;0,00611
40,20000;1,34003;595,97003;0,00622
40,80000;1,36000;605,07264;0,00634
41,40000;1,38003;614,11881;0,00645
42,00000;1,39994;624,97617;0,00658
42,60000;1,41991;634,80572;0,00670
43,20000;1,44000;644,55378;0,00682
43,80000;1,46003;653,74100;0,00694
44,40000;1,48006;662,70572;0,00705
45,00000;1,50003;670,90592;0,00715
45,60000;1,52003;678,63292;0,00726
46,20000;1,54003;686,12495;0,00736
46,80000;1,56000;693,78302;0,00747
47,40000;1,58003;701,56646;0,00757
48,00000;1,59997;709,78231;0,00768
48,60000;1,61991;717,37459;0,00778
49,20000;1,63997;724,88855;0,00789
49,80000;1,66006;732,78793;0,00800
50,40000;1,68006;740,85025;0,00810
51,00000;1,70003;748,18558;0,00821
51,60000;1,72003;756,50797;0,00832
52,20000;1,74000;763,83078;0,00842
52,80000;1,76000;771,78339;0,00853
53,40000;1,78000;779,40389;0,00864
54,00000;1,80000;788,01457;0,00874
54,60000;1,81994;795,52224;0,00885
55,20000;1,83994;802,83880;0,00895
55,80000;1,86005;810,20230;0,00906
56,40000;1,88000;817,60036;0,00917
57,00000;1,90003;825,86948;0,00927
57,60000;1,92000;834,20752;0,00938
58,20000;1,94000;841,14494;0,00949
58,80000;1,96005;848,00087;0,00959
59,40000;1,97994;855,49597;0,00970
60,00000;2,00000;863,51754;0,00980
60,60000;2,01991;871,06284;0,00991
61,20000;2,03997;878,44515;0,01002
61,80000;2,06005;885,56437;0,01013
62,40000;2,08003;893,20680;0,01024
63,00000;2,10008;900,27265;0,01034
63,60000;2,11997;908,10303;0,01045
64,20000;2,14000;914,25395;0,01056
64,80000;2,16003;922,62020;0,01066
65,40000;2,17997;930,08718;0,01077
66,00000;2,19997;936,97757;0,01088
66,60000;2,21991;943,69566;0,01099
67,20000;2,24003;950,92133;0,01110
67,80000;2,26000;958,11877;0,01120
68,40000;2,28003;965,45098;0,01131
69,00000;2,30005;972,46049;0,01142
69,60000;2,31997;980,56979;0,01153
70,20000;2,34005;986,82102;0,01164
70,80000;2,36000;994,20957;0,01175
71,40000;2,38003;1001,86458;0,01186
72,00000;2,39997;1009,45998;0,01197
72,60000;2,41991;1016,62297;0,01208
73,20000;2,44000;1023,76090;0,01219
73,80000;2,46003;1029,84291;0,01230
74,40000;2,48003;1037,28790;0,01241
75,00000;2,50003;1045,07767;0,01253
75,60000;2,52005;1051,46980;0,01264
76,20000;2,54003;1058,98064;0,01275
76,80000;2,56000;1066,14055;0,01286
77,40000;2,58000;1073,71090;0,01297
78,00000;2,59997;1080,32553;0,01309
78,60000;2,61991;1087,22225;0,01320
79,20000;2,63997;1093,86509;0,01331
79,80000;2,66003;1100,69597;0,01342
80,40000;2,68003;1108,25058;0,01354
81,00000;2,70003;1114,57072;0,01365
81,60000;2,72003;1121,77767;0,01377
82,20000;2,74000;1127,57757;0,01388
82,80000;2,76003;1134,80641;0,01400
83,40000;2,78000;1142,36111;0,01411
84,00000;2,79997;1148,74700;0,01423
84,60000;2,81997;1155,94454;0,01434
85,20000;2,83994;1162,50589;0,01446
85,80000;2,86003;1168,74455;0,01458
86,40000;2,88003;1176,45590;0,01470
87,00000;2,90005;1183,25539;0,01481
87,60000;2,92000;1190,28054;0,01493
88,20000;2,94000;1196,49414;0,01504
88,80000;2,96003;1203,36888;0,01517
89,40000;2,97994;1209,72032;0,01528
90,00000;3,00000;1217,65109;0,01540
90,60000;3,01991;1223,48862;0,01552
91,20000;3,03994;1229,65211;0,01564
91,80000;3,06005;1236,37635;0,01576
92,40000;3,08002;1242,76858;0,01588
93,00000;3,10011;1249,96603;0,01600
93,60000;3,11997;1257,08524;0,01612
94,20000;3,14000;1263,30508;0,01624
94,80000;3,16000;1269,75365;0,01636
95,40000;3,17994;1276,17400;0,01648
96,00000;3,20000;1282,77615;0,01660
96,60000;3,21991;1289,24353;0,01672
97,20000;3,24002;1295,42584;0,01685
97,80000;3,26002;1302,09057;0,01697
98,40000;3,28000;1308,21643;0,01710
99,00000;3,30008;1314,64619;0,01722
99,60000;3,31997;1321,53668;0,01734
100,20000;3,34000;1326,57206;0,01746
100,80000;3,36000;1332,97676;0,01758
101,40000;3,38002;1339,12768;0,01771
102,00000;3,39994;1345,42901;0,01783
102,60000;3,41991;1351,92145;0,01795
103,20000;3,44000;1357,55222;0,01808
103,80000;3,46002;1363,85355;0,01821
104,40000;3,48008;1370,25518;0,01833
105,00000;3,50002;1376,54077;0,01846
105,60001;3,52002;1382,66347;0,01859
106,20001;3,54002;1387,23515;0,01871
106,80001;3,56000;1394,86510;0,01884
107,40001;3,58002;1400,57104;0,01897
108,00001;3,60000;1406,70314;0,01910
108,60001;3,61991;1413,57165;0,01923
109,20001;3,63994;1419,07390;0,01936
109,80001;3,66005;1424,62011;0,01949
110,40001;3,68005;1430,49527;0,01962
111,00001;3,70002;1436,81541;0,01975
111,60001;3,72002;1442,85662;0,01989
112,20001;3,74000;1448,26490;0,02002
112,80001;3,76000;1454,58812;0,02016
113,40001;3,78000;1459,92441;0,02029
114,00001;3,80000;1466,54844;0,02043
114,60001;3,81991;1472,15417;0,02056
115,20001;3,83994;1478,10765;0,02070
115,80001;3,86005;1484,24292;0,02083
116,40001;3,88000;1490,20897;0,02097
117,00001;3,90005;1494,24169;0,02111
117,60001;3,92000;1501,10386;0,02124
118,20001;3,94000;1507,04170;0,02138
118,80001;3,96005;1511,98311;0,02152
119,40001;3,97997;1518,28127;0,02165
120,00001;3,99994;1524,16900;0,02179
120,60001;4,01991;1529,11358;0,02193
121,20001;4,03994;1534,25233;0,02207
121,80001;4,06008;1540,34691;0,02221
122,40001;4,08002;1545,84292;0,02236
123,00001;4,10008;1550,77493;0,02250
123,60001;4,11997;1556,70019;0,02264
124,20001;4,14000;1561,48812;0,02279
124,80001;4,15999;1567,79252;0,02293
125,40001;4,17997;1572,32657;0,02308
126,00001;4,20000;1577,50919;0,02322
126,60001;4,21991;1582,99897;0,02336
127,20001;4,24005;1588,51389;0,02351
127,80001;4,26000;1593,91910;0,02365
128,40001;4,28002;1599,05776;0,02380
129,00001;4,30005;1604,40654;0,02394
129,60001;4,31997;1609,33230;0,02409
130,20001;4,33999;1614,74068;0,02424
130,80001;4,35997;1619,10541;0,02439
131,40001;4,38002;1624,61717;0,02454
132,00001;4,39994;1629,65581;0,02468
132,60001;4,41991;1634,14907;0,02483
133,20001;4,43999;1639,18454;0,02498
133,80001;4,46002;1643,55561;0,02514
134,40001;4,48002;1648,73507;0,02529
135,00001;4,50002;1653,63587;0,02544
135,60001;4,52005;1659,07852;0,02559
136,20001;4,54002;1663,34007;0,02574
136,80001;4,55999;1667,58895;0,02589
137,40001;4,58002;1672,33925;0,02605
138,00001;4,59997;1677,74130;0,02620
138,60001;4,61994;1682,04661;0,02636
139,20001;4,63997;1687,38291;0,02651
139,80001;4,66005;1690,87667;0,02667
140,40001;4,68005;1696,12821;0,02682
141,00001;4,70005;1699,98556;0,02698
141,60001;4,72002;1705,28088;0,02714
142,20001;4,73999;1708,79662;0,02730
142,80001;4,75999;1713,10510;0,02745
143,40001;4,77999;1717,02821;0,02761
144,00001;4,79997;1721,73455;0,02777
144,60001;4,81997;1726,53180;0,02794
145,20001;4,83994;1730,24815;0,02810
145,80001;4,86002;1734,57842;0,02826
146,40001;4,88002;1738,81482;0,02842
147,00001;4,90005;1743,11083;0,02858
147,60001;4,92002;1747,12464;0,02875
148,20001;4,94002;1751,73711;0,02891
148,80001;4,96005;1755,38138;0,02908
149,40001;4,97994;1758,87812;0,02924
150,00001;5,00002;1763,47494;0,02941
150,60001;5,01991;1767,71451;0,02958
151,20001;5,03994;1771,74713;0,02974
151,80001;5,06008;1774,71135;0,02991
152,40001;5,08002;1778,89131;0,03008
153,00001;5,10008;1782,37259;0,03025
153,60001;5,11997;1786,95675;0,03042
154,20001;5,13999;1790,70756;0,03059
154,80001;5,15999;1794,21697;0,03076
155,40001;5,17997;1797,52894;0,03093
156,00001;5,20002;1801,28291;0,03111
156,60001;5,21991;1805,57258;0,03128
157,20001;5,24002;1809,47371;0,03145
157,80001;5,25999;1813,18987;0,03163
158,40001;5,28002;1816,11329;0,03180
159,00001;5,30008;1819,75123;0,03198
159,60001;5,31999;1824,26646;0,03216
160,20001;5,33999;1826,83282;0,03233
160,80001;5,35999;1831,35439;0,03251
161,40001;5,38005;1833,44427;0,03269
162,00001;5,39994;1837,43313;0,03287
162,60001;5,41991;1839,74877;0,03304
163,20001;5,43999;1843,82536;0,03322
163,72201;5,45746;1539,81736;0,02572
163,73001;5,45771;1102,71070;0,01411