Folder: DeSiPro_OmniUAV_2024/02_Appendices/Appendix_C_Experimental_Data_and_Analysis Reports/C_1_Materials_Tests/C_1_1_Tensile_tests/C_1_1_1_Quantun_70_30

Note: 02_Appendices/Appendix_C_Experimental_Data_and_Analysis Reports/C_1_Materials_Tests/README.md
# Appendix_C-1_Materials
This repository stores the dataset of materials to tensile and flexion tests.
The directory is separated into two, namely tensile tests and flexion tests.
Each directory has seven data sets, with ten to twelve experiments each, relating to six types of resins used in additive manufacturing processes. 
These data are useful for evaluating the mechanical behavior of these materials.

File: Specimen_RawData_4.csv
Text Inputs : Specimen label;"1"
Dimension : Length;50,00000;mm
Dimension : Final length;100,00000;mm
Test : Rate 1;2,00000;mm/min
General : Unique Identifier;"{3134B78B-0030-4E3D-B7CF-3C5A44EDC0B5}"

Time;Extension;Load;Strain 1
(sec);(mm);(N);(mm/mm)
0,00000;0,00000;2,83703;0,00000
1,70000;0,05641;55,14018;0,00039
3,40000;0,11311;99,89176;0,00082
5,10000;0,16980;115,69676;0,00100
6,80000;0,22650;116,08844;0,00103
8,50000;0,28348;116,20751;0,00105
10,20000;0,34017;116,74332;0,00107
11,90000;0,39687;115,71243;0,00108
13,60000;0,45356;116,92506;0,00109
15,30000;0,50997;120,16816;0,00115
17,00000;0,56667;144,93162;0,00138
18,70000;0,62336;184,95487;0,00176
20,40000;0,68034;222,31783;0,00213
22,10000;0,73647;260,11635;0,00250
23,80000;0,79373;297,45111;0,00290
25,50000;0,84986;332,93716;0,00328
27,20000;0,90655;368,47959;0,00366
28,90000;0,96353;403,35148;0,00404
30,60000;1,01937;435,19964;0,00441
32,30000;1,07721;467,04463;0,00480
34,00000;1,13305;498,08118;0,00515
35,70000;1,19031;528,19969;0,00552
37,40000;1,24644;556,72326;0,00587
39,10000;1,30342;585,72623;0,00622
40,80000;1,36011;613,43824;0,00658
42,50000;1,41681;638,61534;0,00690
44,20000;1,47265;660,88461;0,00721
45,90000;1,53048;684,85215;0,00752
47,60000;1,58689;709,24275;0,00784
49,30000;1,64359;730,76938;0,00814
51,00000;1,69943;752,70021;0,00844
52,70000;1,75669;776,36386;0,00875
54,40000;1,81367;798,20696;0,00906
56,10000;1,87037;820,93999;0,00937
57,80000;1,92592;840,20738;0,00967
59,50000;1,98376;863,41351;0,00999
61,20000;2,04017;884,90881;0,01029
62,90000;2,09715;908,06168;0,01061
64,60000;2,15270;928,11249;0,01092
66,30000;2,20968;948,88397;0,01123
68,00000;2,26695;970,50779;0,01155
69,70000;2,32307;990,03213;0,01187
71,40000;2,37948;1013,41689;0,01219
73,10000;2,43703;1034,59256;0,01252
74,80000;2,49316;1054,88468;0,01284
76,50000;2,55014;1075,87548;0,01317
78,20000;2,60626;1096,44951;0,01351
79,90000;2,66353;1117,65033;0,01384
81,60000;2,71966;1137,86720;0,01418
83,30000;2,77664;1158,41618;0,01452
85,00000;2,83276;1177,28878;0,01485
86,70000;2,89060;1199,10678;0,01520
88,40000;2,94615;1218,14869;0,01554
90,10000;3,00313;1238,17436;0,01589
91,80000;3,06011;1258,74532;0,01625
93,50000;3,11652;1277,46128;0,01660
95,20000;3,17379;1296,69737;0,01696
96,90000;3,22963;1315,68909;0,01732
98,60000;3,28689;1334,74655;0,01769
100,30000;3,34359;1353,69441;0,01805
102,00000;3,40000;1371,71783;0,01842
103,70000;3,45669;1390,72519;0,01880
105,40001;3,51339;1408,99308;0,01918
107,10001;3,57008;1426,86609;0,01955
108,80001;3,62706;1444,72355;0,01993
110,50001;3,68347;1462,16415;0,02032
112,20001;3,74045;1478,79953;0,02070
113,90001;3,79743;1495,32836;0,02109
115,60001;3,85299;1510,73849;0,02147
117,30001;3,91025;1528,15720;0,02188
119,00001;3,96695;1543,56118;0,02227
120,70001;4,02336;1558,47315;0,02267
122,40001;4,08034;1574,39411;0,02308
124,10001;4,13618;1588,86425;0,02348
125,80001;4,19401;1604,92919;0,02390
127,50001;4,25014;1618,58164;0,02431
129,20001;4,30626;1632,31846;0,02472
130,90001;4,36296;1646,47214;0,02514
132,60001;4,41994;1660,20915;0,02557
134,30001;4,47692;1673,50117;0,02600
136,00001;4,53361;1686,55496;0,02643
137,70001;4,58917;1698,19258;0,02685
139,40001;4,64786;1711,93574;0,02731
141,10001;4,70341;1722,80874;0,02774
142,80001;4,75982;1733,95742;0,02818
144,50001;4,81652;1744,84923;0,02863
146,20001;4,87350;1756,14525;0,02909
147,90001;4,93019;1766,46356;0,02955
149,60001;4,98689;1776,92920;0,03001
151,30001;5,04273;1784,97583;0,03046
153,00001;5,10028;1795,22224;0,03094
154,70001;5,15697;1805,44350;0,03142
156,40001;5,21281;1813,18298;0,03189
158,10001;5,26979;1823,53575;0,03238
159,80001;5,32677;1831,47900;0,03287
161,50001;5,38375;1838,92399;0,03336
163,20001;5,44045;1846,72326;0,03386
164,90001;5,49572;1852,83646;0,03435
166,60001;5,55384;1862,55630;0,03487
168,30001;5,60968;1867,55415;0,03538
170,00001;5,66638;1874,26601;0,03589
171,70001;5,72336;1880,16929;0,03641
173,40001;5,78005;1886,26386;0,03693
175,10001;5,83646;1891,20527;0,03745
176,80001;5,89316;1896,48196;0,03799
178,50001;5,94928;1900,00702;0,03852
180,20001;6,00683;1906,11091;0,03907
181,90001;6,06324;1910,68891;0,03961
183,60001;6,11994;1914,15772;0,04017
185,30001;6,17720;1918,49116;0,04073
187,00001;6,23333;1920,62818;0,04128
188,70001;6,29031;1925,55711;0,04185
190,40001;6,34672;1928,46488;0,04241
192,10001;6,40284;1930,24464;0,04298
193,80001;6,46039;1933,89822;0,04357
195,50001;6,51652;1935,94750;0,04415
197,20001;6,57321;1938,23166;0,04473
198,90001;6,63076;1940,25598;0,04533
200,60001;6,68660;1942,17674;0,04591
202,30001;6,74358;1943,49904;0,04650
204,00001;6,79942;1944,13513;0,04710
205,70001;6,85697;1945,72378;0,04771
207,40001;6,91367;1946,47573;0,04831
209,10001;6,96979;1947,26549;0,04892
210,80001;7,02706;1948,00794;0,04953
212,50001;7,08375;1948,72878;0,05015
214,10801;7,13674;1948,67235;0,05073
215,80801;7,19372;1950,31743;0,05136
217,50801;7,25013;1949,99464;0,05198
219,20801;7,30683;1949,51203;0,05261
220,90801;7,36438;1950,75292;0,05325
222,60801;7,42022;1949,86612;0,05388
224,30801;7,47634;1948,93237;0,05451
226,00801;7,53418;1949,81601;0,05516
227,70801;7,59002;1949,12981;0,05580
229,40801;7,64729;1949,61540;0,05645
231,10801;7,70313;1947,68533;0,05709
232,80801;7,76068;1947,50670;0,05774
234,50801;7,81680;1945,94935;0,05838
236,20801;7,87350;1946,09351;0,05904
237,90801;7,92934;1944,54864;0,05968
239,60801;7,98689;1944,42645;0,06035
241,30801;8,04301;1942,24566;0,06101
243,00801;8,10028;1942,71561;0,06168
244,70801;8,15640;1941,32440;0,06233
246,40801;8,21338;1941,35271;0,06300
248,10801;8,27065;1939,94883;0,06367
249,80801;8,32620;1938,07818;0,06432
251,50801;8,38318;1937,83380;0,06500
253,20801;8,44045;1936,38615;0,06568
254,90801;8,49629;1935,79402;0,06635
256,60801;8,55384;1935,14526;0,06703
258,30801;8,60996;1933,81365;0,06771
260,00801;8,66723;1932,55711;0,06838
261,70801;8,72335;1929,90620;0,06905
263,40801;8,77976;1928,58391;0,06973
265,10801;8,83674;1928,48686;0,07042
266,80801;8,89372;1926,89504;0,07110
268,50801;8,94985;1923,87123;0,07178
270,20801;9,00683;1924,15956;0,07247
271,90801;9,06352;1922,82163;0,07315
273,60801;9,12050;1922,00057;0,07384
275,30801;9,17691;1920,47153;0,07453
277,00801;9,23304;1917,71407;0,07521
278,70801;9,29059;1918,27174;0,07591
280,40801;9,34728;1916,14106;0,07661
282,10801;9,40341;1914,87204;0,07729
283,80801;9,46067;1914,46785;0,07800
285,50801;9,51708;1912,87920;0,07869
287,20801;9,57349;1911,29372;0,07939
288,90801;9,63047;1910,63248;0,08009
290,60801;9,68631;1908,11325;0,08078
292,30801;9,74415;1907,03217;0,08149
294,00801;9,79999;1905,47798;0,08218
295,70801;9,85725;1904,37827;0,08287
297,40801;9,91366;1903,16550;0,08357
299,10801;9,97036;1901,62398;0,08427
300,80801;10,02705;1900,68390;0,08497
302,50801;10,08347;1898,81641;0,08567
304,20801;10,13959;1897,55056;0,08637
305,90801;10,19742;1896,97072;0,08708
307,60801;10,25383;1895,87418;0,08779
309,30801;10,31024;1893,75896;0,08849
311,00801;10,36665;1893,00384;0,08919
312,70801;10,42335;1891,77245;0,08990
314,40801;10,48033;1892,21427;0,09061
316,10802;10,53703;1891,08942;0,09132
317,80802;10,59287;1888,02797;0,09202
319,50802;10,65099;1889,29699;0,09274
321,20802;10,70654;1885,81571;0,09343
322,90802;10,76381;1885,33012;0,09414
324,60802;10,81965;1883,51907;0,09484
326,30802;10,87691;1883,91376;0,09556
328,00802;10,93361;1882,55385;0,09627
329,70802;10,98973;1881,41335;0,09698
331,40802;11,04614;1879,13217;0,09768
333,10802;11,10398;1879,23871;0,09840
334,80802;11,16010;1877,97919;0,09911
336,50802;11,21651;1876,45629;0,09982
338,20802;11,27321;1876,30896;0,10053
339,90802;11,32990;1875,27500;0,10125
341,60802;11,38660;1874,47909;0,10196
343,30802;11,44329;1873,36989;0,10268
345,00802;11,49999;1872,54269;0,10339
346,70802;11,55725;1871,88461;0,10411
348,40802;11,61309;1869,93554;0,10482
350,10802;11,67036;1870,53103;0,10554
351,80802;11,72705;1869,44995;0,10625
353,50802;11,78318;1867,71080;0,10696
355,20802;11,84073;1867,39434;0,10768
356,90802;11,89657;1866,68616;0,10839
358,60802;11,95355;1866,03758;0,10910
360,30802;12,01081;1865,71181;0,10982
362,00802;12,06637;1863,10783;0,11052
363,70802;12,12363;1863,75640;0,11125
365,40802;12,18004;1863,37102;0,11196
367,10802;12,23674;1862,95118;0,11268
368,80802;12,29343;1862,25548;0,11340
370,50802;12,35013;1862,08952;0,11412
372,20802;12,40711;1861,67900;0,11484
373,90802;12,46409;1860,78921;0,11556
375,60802;12,52021;1860,24383;0,11628
377,30802;12,57691;1859,85528;0,11700
379,00802;12,63389;1859,83032;0,11772
380,70802;12,69001;1857,74658;0,11843
382,40802;12,74728;1857,80618;0,11916
384,10802;12,80283;1855,74740;0,11986
385,80802;12,86067;1857,07919;0,12059
387,50802;12,91679;1855,56263;0,12130
389,20802;12,97321;1854,38748;0,12202
390,90802;13,03019;1855,28379;0,12274
392,60802;13,08688;1853,40997;0,12346
394,30802;13,14386;1853,55712;0,12418
396,00802;13,20056;1853,55712;0,12490
397,70802;13,25611;1852,48870;0,12561
399,40802;13,31423;1852,73625;0,12634
401,10802;13,37036;1852,62021;0,12706
402,80802;13,42677;1851,73657;0,12778
404,50802;13,48318;1850,85926;0,12851
406,20802;13,54016;1851,90588;0,12923
407,90802;13,59685;1851,44525;0,12996
409,60802;13,65383;1850,58042;0,13068
411,30802;13,70967;1848,99177;0,13139
413,00802;13,76694;1850,16375;0,13212
414,70802;13,82363;1848,94484;0,13284
416,40802;13,87976;1848,55945;0,13355
418,10802;13,93674;1847,96397;0,13428
419,80802;13,99343;1847,74790;0,13500
421,50802;14,05041;1847,48769;0,13572
423,20802;14,10739;1847,52215;0,13646
424,90802;14,16238;1846,22183;0,13716
426,60802;14,22050;1847,03972;0,13790
428,30802;14,27605;1845,03421;0,13861
430,00802;14,33332;1845,72041;0,13934
431,70802;14,39001;1845,23482;0,14007
433,40802;14,44671;1845,24413;0,14078
434,73602;14,49115;1094,66035;0,14432

File: Specimen_RawData_5.csv
Text Inputs : Specimen label;"1"
Dimension : Length;50,00000;mm
Dimension : Final length;100,00000;mm
Test : Rate 1;2,00000;mm/min
General : Unique Identifier;"{8675EAE9-BB96-432E-B07F-419CDB577808}"

Time;Extension;Load;Strain 1
(sec);(mm);(N);(mm/mm)
0,00000;0,00000;7,03795;0,00010
1,50000;0,05043;49,33294;0,00046
3,00000;0,10000;82,37804;0,00080
4,50000;0,14957;95,61363;0,00096
6,00000;0,20085;97,81956;0,00100
7,50000;0,25043;99,37374;0,00103
9,00000;0,30000;100,71171;0,00106
10,50000;0,35014;101,32273;0,00108
12,00000;0,39971;102,14056;0,00111
13,50000;0,44986;104,75382;0,00114
15,00000;0,49943;111,81657;0,00123
16,50000;0,54986;137,87413;0,00146
18,00000;0,59971;169,87894;0,00176
19,50000;0,65100;204,12728;0,00209
21,00000;0,70028;236,01302;0,00243
22,50000;0,74986;267,93324;0,00275
24,00000;0,79943;298,83820;0,00308
25,50000;0,84986;329,23557;0,00341
27,00000;0,89971;359,14411;0,00374
28,50000;0,94986;387,82435;0,00406
30,00000;1,00000;417,16574;0,00439
31,50000;1,04957;444,01293;0,00471
33,00000;1,10028;472,32029;0,00504
34,50000;1,15014;498,86042;0,00535
36,00000;1,20057;525,13732;0,00567
37,50000;1,24957;550,56508;0,00598
39,00000;1,30028;576,96104;0,00630
40,50000;1,34957;601,54279;0,00661
42,00000;1,40000;626,61017;0,00692
43,50000;1,44986;650,44928;0,00724
45,00000;1,50000;676,29376;0,00755
46,50000;1,55043;701,26406;0,00787
48,00000;1,60028;724,70834;0,00819
49,50000;1,65014;747,76094;0,00850
51,00000;1,69943;771,34622;0,00881
52,50000;1,75043;794,98794;0,00912
54,00000;1,80000;816,00696;0,00942
55,50000;1,84986;836,53713;0,00971
57,00000;1,89971;856,67251;0,01000
58,50000;1,94957;876,98968;0,01030
60,00000;2,00028;898,59152;0,01060
61,50000;2,05042;918,50124;0,01090
63,00000;2,10000;938,64296;0,01119
64,50000;2,14957;957,27118;0,01149
66,00000;2,20057;978,08335;0,01179
67,50000;2,25014;997,20042;0,01209
69,00000;2,30028;1018,07844;0,01240
70,50000;2,35014;1037,40543;0,01270
72,00000;2,39943;1055,90830;0,01300
73,50000;2,44957;1074,98458;0,01331
75,00000;2,49943;1093,66914;0,01361
76,50000;2,54985;1113,04941;0,01393
78,00000;2,59971;1131,26086;0,01424
79,50000;2,65099;1151,18325;0,01456
81,00000;2,70028;1168,38571;0,01487
82,50000;2,75014;1186,39981;0,01518
84,00000;2,79943;1204,04726;0,01549
85,50000;2,85014;1222,45606;0,01581
87,00000;2,89971;1239,15412;0,01613
88,50000;2,94985;1256,37548;0,01645
90,00000;2,99971;1273,80351;0,01677
91,50000;3,04957;1290,85565;0,01710
93,00000;3,10028;1307,56935;0,01743
94,50000;3,15014;1324,43346;0,01776
96,00000;3,20057;1341,12835;0,01809
97,50000;3,24985;1357,19031;0,01842
99,00000;3,30028;1373,02345;0,01876
100,50000;3,34985;1389,62753;0,01909
102,00000;3,40000;1405,00003;0,01943
103,50000;3,44957;1419,85882;0,01977
105,00000;3,49971;1435,14359;0,02012
106,50001;3,55014;1451,64113;0,02047
108,00001;3,60028;1466,72856;0,02082
109,50001;3,65042;1481,19871;0,02117
111,00001;3,69971;1495,20515;0,02152
112,50001;3,75042;1509,09247;0,02187
114,00001;3,80000;1523,27437;0,02223
115,50001;3,84985;1536,91107;0,02259
117,00001;3,89971;1550,15606;0,02295
118,50001;3,94928;1562,68347;0,02331
120,00001;4,00028;1576,15393;0,02368
121,50001;4,05014;1589,39585;0,02405
123,00001;4,10028;1602,20843;0,02443
124,50001;4,14957;1614,27520;0,02480
126,00001;4,20085;1627,39810;0,02519
127,50001;4,25014;1638,92601;0,02556
129,00001;4,30028;1649,99310;0,02595
130,50001;4,35014;1661,75924;0,02634
132,00001;4,39943;1673,15230;0,02673
133,50001;4,44957;1683,69319;0,02712
135,00001;4,49943;1693,76396;0,02751
136,50001;4,54985;1704,25791;0,02792
138,00001;4,59971;1714,55108;0,02833
139,50001;4,65099;1725,66846;0,02874
141,00001;4,70028;1734,18839;0,02914
142,50001;4,75014;1743,65118;0,02956
144,00001;4,79942;1751,88594;0,02997
145,50001;4,85014;1761,14514;0,03039
147,00001;4,89971;1768,39586;0,03081
148,50001;4,94985;1777,61130;0,03124
150,00001;4,99971;1785,14402;0,03167
151,50001;5,04985;1793,17500;0,03211
153,00001;5,10028;1800,55108;0,03255
154,50001;5,15042;1808,52879;0,03300
156,00001;5,20056;1815,84228;0,03345
157,50001;5,24985;1822,95199;0,03390
159,00001;5,29999;1829,11865;0,03435
160,50001;5,34985;1835,51069;0,03481
162,00001;5,39971;1841,85598;0,03527
163,50001;5,44985;1847,89412;0,03574
165,00001;5,49942;1853,09555;0,03621
166,50001;5,55042;1859,03031;0,03670
168,00001;5,60028;1864,37592;0,03717
169,50001;5,65071;1869,12939;0,03765
171,00001;5,69971;1874,08328;0,03813
172,50001;5,75042;1879,11242;0,03863
174,00001;5,79999;1882,47766;0,03911
175,50001;5,84957;1886,21581;0,03961
177,00001;5,89942;1889,59055;0,04010
178,50001;5,94928;1893,56692;0,04060
180,00001;6,00028;1897,34586;0,04112
181,50001;6,05042;1900,89904;0,04163
183,00001;6,10028;1903,79433;0,04215
184,50001;6,14957;1906,79934;0,04266
186,00001;6,20085;1910,41529;0,04320
187,50001;6,24985;1912,19822;0,04372
189,00001;6,30028;1914,71130;0,04425
190,50001;6,34985;1915,72960;0,04479
192,00001;6,39971;1918,29894;0,04533
193,50001;6,44957;1920,34505;0,04587
195,00001;6,49971;1921,54832;0,04641
196,50001;6,54985;1923,55998;0,04696
198,00001;6,59999;1925,79739;0,04752
199,50001;6,65070;1926,80620;0,04808
201,00001;6,70028;1927,81519;0,04864
202,50001;6,74985;1927,96569;0,04919
204,00001;6,79971;1929,20957;0,04976
205,46401;6,84843;1928,96519;0,05031
206,96401;6,89828;1928,95588;0,05087
208,46401;6,94871;1930,51938;0,05145
209,96401;6,99885;1931,15231;0,05203
211,46401;7,04843;1931,35608;0,05261
212,96401;7,09914;1931,65373;0,05319
214,46401;7,14928;1931,54085;0,05378
215,96401;7,19914;1932,37755;0,05437
217,46401;7,24871;1932,22091;0,05496
218,96401;7,29914;1931,78207;0,05556
220,46401;7,34871;1930,95170;0,05615
221,96401;7,39857;1930,83901;0,05674
223,46401;7,44842;1930,71999;0,05735
224,96401;7,49800;1929,38503;0,05794
226,46401;7,54899;1929,90843;0,05856
227,96401;7,59885;1930,03360;0,05917
229,46401;7,64928;1929,49157;0,05978
230,96401;7,69828;1928,37603;0,06038
232,46401;7,74956;1928,33226;0,06100
233,96401;7,79885;1926,66836;0,06161
235,46401;7,84871;1925,98850;0,06222
236,96401;7,89828;1923,97051;0,06284
238,46401;7,94785;1923,24035;0,06345
239,96401;7,99857;1922,79238;0,06408
241,46401;8,04899;1923,30312;0,06470
242,96401;8,09914;1922,11233;0,06533
244,46401;8,14842;1920,48606;0,06596
245,96401;8,19942;1920,79954;0,06659
247,46401;8,24871;1919,20772;0,06722
248,96401;8,29914;1918,07337;0,06785
250,46401;8,34871;1916,75741;0,06848
251,96401;8,39857;1915,73594;0,06912
253,46401;8,44842;1914,11283;0,06975
254,96401;8,49800;1913,18840;0,07039
256,46401;8,54814;1912,22019;0,07103
257,96401;8,59857;1910,74423;0,07167
259,46401;8,64985;1910,99178;0,07232
260,96401;8,69942;1909,38748;0,07296
262,46401;8,74899;1907,65783;0,07359
263,96401;8,79828;1906,54863;0,07424
265,46401;8,84842;1905,28911;0,07488
266,96401;8,89857;1904,19238;0,07552
268,46401;8,94842;1902,24648;0,07617
269,96401;8,99857;1901,36600;0,07682
271,46401;9,04785;1899,66448;0,07746
272,96401;9,09913;1899,72725;0,07813
274,46401;9,14899;1897,91303;0,07878
275,96401;9,19942;1897,46488;0,07943
277,46401;9,24899;1896,31172;0,08008
278,96401;9,29942;1895,03022;0,08074
280,46401;9,34871;1893,36631;0,08139
281,96401;9,39856;1892,21334;0,08204
283,46401;9,44814;1890,07316;0,08269
284,96401;9,49771;1889,73155;0,08335
286,46401;9,54928;1890,17653;0,08402
287,96401;9,59885;1889,16754;0,08468
289,46401;9,64928;1888,23380;0,08534
290,96401;9,69828;1886,30987;0,08600
292,46401;9,74899;1886,00272;0,08666
293,96401;9,79885;1884,07581;0,08731
295,46401;9,84871;1882,98523;0,08797
296,96401;9,89799;1881,07714;0,08863
298,46401;9,94814;1879,79229;0,08929
299,96401;9,99828;1879,68891;0,08995
301,46401;10,04899;1879,71406;0,09062
302,96401;10,09885;1878,86488;0,09128
304,46401;10,14842;1877,53309;0,09194
305,96401;10,19942;1876,47715;0,09261
307,46401;10,24899;1875,53409;0,09327
308,96401;10,29885;1874,55006;0,09393
310,46401;10,34899;1873,78246;0,09460
311,96401;10,39828;1873,46600;0,09526
313,46401;10,44871;1872,86120;0,09593
314,96401;10,49828;1871,11907;0,09659
316,46402;10,54871;1870,85588;0,09727
317,96402;10,59856;1869,07295;0,09793
319,46402;10,64985;1869,71202;0,09861
320,96402;10,69913;1868,01385;0,09927
322,46402;10,74899;1867,48430;0,09994
323,96402;10,79856;1865,72019;0,10060
325,46402;10,84871;1865,30966;0,10127
326,96402;10,89828;1863,45149;0,10193
328,46402;10,94842;1862,96906;0,10260
329,96402;10,99856;1861,89413;0,10327
331,46402;11,04785;1860,79126;0,10394
332,96402;11,09913;1861,09524;0,10462
334,46402;11,14899;1860,02348;0,10529
335,96402;11,19913;1859,78860;0,10596
337,46402;11,24842;1857,84586;0,10663
338,96402;11,29942;1858,09657;0,10731
340,46402;11,34842;1856,24156;0,10797
341,96402;11,39856;1856,30415;0,10865
343,46402;11,44842;1854,22674;0,10932
344,96402;11,49771;1853,57183;0,10998
346,46402;11,54899;1854,58083;0,11067
347,96402;11,59913;1853,48727;0,11135
349,46402;11,64928;1852,92009;0,11202
350,96402;11,69828;1851,43482;0,11268
352,46402;11,74927;1851,02429;0,11336
353,96402;11,79885;1850,40087;0,11403
355,46402;11,84899;1850,14382;0,11470
356,96402;11,89828;1848,11037;0,11537
358,46402;11,94785;1847,31744;0,11604
359,96402;11,99885;1847,27367;0,11672
361,46402;12,04927;1846,65639;0,11739
362,96402;12,09885;1846,64689;0,11807
364,46402;12,14842;1846,26468;0,11874
365,96402;12,19942;1845,08655;0,11942
367,46402;12,24899;1843,97101;0,12010
368,96402;12,29885;1843,76109;0,12077
370,46402;12,34870;1843,03410;0,12145
371,96402;12,39828;1842,90875;0,12212
373,46402;12,44813;1841,60843;0,12280
374,96402;12,49771;1841,21039;0,12347
376,46402;12,54842;1841,79638;0,12416
377,96402;12,59828;1841,00363;0,12483
379,46402;12,65013;1841,39535;0,12553
380,96402;12,69913;1840,08237;0,12620
382,46402;12,74927;1840,10752;0,12687
383,96402;12,79856;1838,54084;0,12754
385,46402;12,84870;1838,19290;0,12822
386,96402;12,89828;1836,83932;0,12888
388,46402;12,94842;1835,71763;0,12956
389,96402;12,99856;1836,06222;0,13024
391,46402;13,04785;1835,56713;0,13091
392,96402;13,09885;1835,35721;0,13160
394,46402;13,14899;1835,01877;0,13228
395,96402;13,19942;1834,60843;0,13298
397,46402;13,24842;1834,09769;0,13368
398,96402;13,29941;1833,17959;0,13444
399,61402;13,32107;1021,86985;0,12788