Folder: DeSiPro_OmniUAV_2024/02_Appendices/Appendix_C_Experimental_Data_and_Analysis Reports/C_1_Materials_Tests/C_1_1_Tensile_tests/C_1_1_3_Smooth Comum (part 2)

File: Specimen_RawData_8.csv
Text Inputs : Specimen label;"1"
Dimension : Length;50,00000;mm
Dimension : Final length;100,00000;mm
Test : Rate 1;2,00000;mm/min
General : Unique Identifier;"{CA0B3020-BB59-4645-B728-A6024B8BEF6C}"

Time;Extension;Load;Strain 1
(sec);(mm);(N);(mm/mm)
0,00000;0,00000;12,00438;0,00015
0,50000;0,01573;17,16199;0,00018
1,00000;0,03322;34,57131;0,00031
1,50000;0,04997;50,07236;0,00043
2,00000;0,06658;64,03491;0,00055
2,50000;0,08333;75,62859;0,00065
3,00000;0,10009;85,60854;0,00074
3,50000;0,11667;88,96758;0,00078
4,00000;0,13325;90,29302;0,00080
4,50000;0,15006;90,92283;0,00081
5,00000;0,16669;89,87314;0,00082
5,50000;0,18333;90,51549;0,00082
6,00000;0,19994;90,88836;0,00083
6,50000;0,21667;89,88254;0,00084
7,00000;0,23336;90,25228;0,00084
7,50000;0,25011;88,53517;0,00084
8,00000;0,26661;90,81003;0,00085
8,50000;0,28336;90,69096;0,00086
9,00000;0,30006;90,44969;0,00087
9,50000;0,31667;90,05488;0,00087
10,00000;0,33322;90,75677;0,00087
10,50000;0,35003;90,31495;0,00088
11,00000;0,36675;90,32435;0,00088
11,50000;0,38339;90,08935;0,00089
12,00000;0,39997;90,41835;0,00089
12,50000;0,41661;90,46223;0,00089
13,00000;0,43333;91,51192;0,00091
13,50000;0,45003;93,24470;0,00093
14,00000;0,46664;99,25148;0,00098
14,50000;0,48330;110,85769;0,00107
15,00000;0,50008;122,63310;0,00117
15,50000;0,51667;134,93806;0,00127
16,00000;0,53328;146,52234;0,00137
16,50000;0,55003;159,08111;0,00148
17,00000;0,56669;171,14166;0,00158
17,50000;0,58336;182,09298;0,00168
18,00000;0,59997;193,94987;0,00179
18,50000;0,61667;206,07309;0,00190
19,00000;0,63333;217,43488;0,00200
19,50000;0,65006;228,89383;0,00211
20,00000;0,66664;239,11819;0,00222
20,50000;0,68336;250,45807;0,00232
21,00000;0,70003;262,39327;0,00243
21,50000;0,71667;272,34817;0,00253
22,00000;0,73328;283,51883;0,00264
22,50000;0,75003;294,04087;0,00275
23,00000;0,76669;304,58171;0,00285
23,50000;0,78333;315,48918;0,00295
24,00000;0,80000;325,38453;0,00306
24,50000;0,81672;335,38330;0,00317
25,00000;0,83330;345,82701;0,00327
25,50000;0,85003;356,97573;0,00338
26,00000;0,86661;366,64235;0,00348
26,50000;0,88333;376,55651;0,00358
27,00000;0,90003;387,45457;0,00369
27,50000;0,91667;396,61666;0,00379
28,00000;0,93328;406,48072;0,00390
28,50000;0,95006;415,34831;0,00400
29,00000;0,96672;426,33098;0,00410
29,50000;0,98333;435,11707;0,00420
30,00000;1,00000;444,26983;0,00431
30,50000;1,01667;453,45388;0,00440
31,00000;1,03333;462,22121;0,00450
31,50000;1,04997;471,57137;0,00460
32,00000;1,06664;480,35122;0,00470
32,50000;1,08336;489,34100;0,00480
33,00000;1,10014;498,56580;0,00490
33,50000;1,11664;506,92265;0,00500
34,00000;1,13322;515,50511;0,00510
34,50000;1,15003;524,05624;0,00520
35,00000;1,16669;532,98022;0,00530
35,50000;1,18333;540,92975;0,00540
36,00000;1,20000;549,42761;0,00549
36,50000;1,21667;557,74683;0,00559
37,00000;1,23333;566,88078;0,00569
37,50000;1,25008;573,81815;0,00578
38,00000;1,26658;580,89346;0,00586
38,50000;1,28336;587,66790;0,00594
39,00000;1,30008;595,33226;0,00603
39,50000;1,31667;601,19806;0,00611
40,00000;1,33325;608,43937;0,00620
40,50000;1,35003;616,06616;0,00629
41,00000;1,36672;624,27260;0,00638
41,50000;1,38342;631,94009;0,00647
42,00000;1,39997;638,66130;0,00656
42,50000;1,41661;646,58569;0,00665
43,00000;1,43333;654,07460;0,00674
43,50000;1,45003;661,40369;0,00683
44,00000;1,46661;668,78288;0,00691
44,50000;1,48327;676,51621;0,00701
45,00000;1,50008;684,28083;0,00709
45,50000;1,51666;690,92680;0,00718
46,00000;1,53330;698,29351;0,00727
46,50000;1,55003;704,84863;0,00736
47,00000;1,56669;711,83303;0,00744
47,50000;1,58336;717,95573;0,00752
48,00000;1,59997;725,44464;0,00761
48,50000;1,61666;731,25716;0,00769
49,00000;1,63333;738,60502;0,00778
49,50000;1,65003;744,04464;0,00786
50,00000;1,66666;751,96284;0,00795
50,50000;1,68339;758,60568;0,00803
51,00000;1,70003;765,03549;0,00811
51,50000;1,71664;771,63759;0,00820
52,00000;1,73327;778,33687;0,00828
52,50000;1,75003;785,28682;0,00837
53,00000;1,76669;792,16780;0,00846
53,50000;1,78336;798,76995;0,00854
54,00000;1,80000;805,18713;0,00863
54,50000;1,81669;811,25349;0,00871
55,00000;1,83330;817,61749;0,00879
55,50000;1,85000;824,82751;0,00888
56,00000;1,86664;830,87813;0,00896
56,50000;1,88333;837,58049;0,00905
57,00000;1,90005;844,33304;0,00913
57,50000;1,91666;850,87875;0,00922
58,00000;1,93325;857,17700;0,00930
58,50000;1,95005;863,58795;0,00939
59,00000;1,96672;870,58805;0,00947
59,50000;1,98333;876,33468;0,00956
60,00000;1,99997;883,00267;0,00964
60,50000;2,01669;889,06894;0,00973
61,00000;2,03333;896,16934;0,00981
61,50000;2,05000;901,53059;0,00990
62,00000;2,06664;908,76566;0,00998
62,50000;2,08333;914,87588;0,01007
63,00000;2,10011;921,06126;0,01016
63,50000;2,11666;927,10564;0,01024
64,00000;2,13325;933,63877;0,01033
64,50000;2,15005;939,14112;0,01041
65,00000;2,16669;945,19798;0,01050
65,50000;2,18333;951,73744;0,01059
66,00000;2,19997;958,01372;0,01067
66,50000;2,21666;964,05493;0,01076
67,00000;2,23336;969,83612;0,01084
67,50000;2,25011;976,89573;0,01093
68,00000;2,26661;983,73601;0,01102
68,50000;2,28333;989,44828;0,01111
69,00000;2,30008;996,40759;0,01119
69,50000;2,31666;1002,26086;0,01128
70,00000;2,33325;1008,40861;0,01137
70,50000;2,35005;1014,18979;0,01146
71,00000;2,36675;1021,11464;0,01154
71,50000;2,38339;1027,57895;0,01163
72,00000;2,39997;1033,27548;0,01172
72,50000;2,41664;1039,35432;0,01181
73,00000;2,43336;1045,56167;0,01189
73,50000;2,45003;1051,20810;0,01198
74,00000;2,46664;1057,84778;0,01207
74,50000;2,48330;1064,13662;0,01216
75,00000;2,50008;1069,38193;0,01225
75,50000;2,51666;1075,88693;0,01234
76,00000;2,53330;1081,72446;0,01243
76,50000;2,55003;1088,38305;0,01252
77,00000;2,56669;1094,09215;0,01261
77,50000;2,58336;1100,54696;0,01270
78,00000;2,59997;1106,24041;0,01279
78,50000;2,61664;1112,73602;0,01288
79,00000;2,63336;1118,15995;0,01297
79,50000;2,65005;1124,38612;0,01306
80,00000;2,66664;1130,05759;0,01315
80,50000;2,68336;1136,55003;0,01324
81,00000;2,70003;1142,56935;0,01333
81,50000;2,71669;1148,75473;0,01342
82,00000;2,73327;1154,24134;0,01352
82,50000;2,75003;1160,19798;0,01361
83,00000;2,76669;1166,13898;0,01370
83,50000;2,78333;1173,03561;0,01379
84,00000;2,80000;1178,09298;0,01389
84,50000;2,81669;1184,89563;0,01398
85,00000;2,83330;1189,85903;0,01407
85,50000;2,85003;1196,07262;0,01416
86,00000;2,86663;1201,81618;0,01426
86,50000;2,88333;1208,53111;0,01435
87,00000;2,90005;1213,54768;0,01445
87,50000;2,91666;1219,65474;0,01454
88,00000;2,93324;1225,40463;0,01463
88,50000;2,95005;1231,30484;0,01473
89,00000;2,96672;1237,40248;0,01482
89,50000;2,98333;1242,69174;0,01492
90,00000;3,00000;1249,27508;0,01502
90,50000;3,01666;1255,30064;0,01511
91,00000;3,03333;1261,34185;0,01521
91,50000;3,04994;1266,51824;0,01530
92,00000;3,06663;1273,30218;0,01540
92,50000;3,08333;1278,34072;0,01550
93,00000;3,10014;1285,20913;0,01560
93,50000;3,11666;1290,22263;0,01569
94,00000;3,13322;1295,95995;0,01579
94,50000;3,15005;1302,24247;0,01589
95,00000;3,16672;1307,72907;0,01599
95,50000;3,18333;1313,56977;0,01609
96,00000;3,20002;1319,31966;0,01619
96,50000;3,21666;1325,46118;0,01628
97,00000;3,23336;1331,80320;0,01638
97,50000;3,25011;1336,94513;0,01648
98,00000;3,26658;1341,81762;0,01658
98,50000;3,28333;1348,41353;0,01668
99,00000;3,30011;1353,60556;0,01678
99,50000;3,31666;1359,04830;0,01688
100,00000;3,33324;1364,36578;0,01698
100,50000;3,35002;1370,64829;0,01708
101,00000;3,36672;1375,31077;0,01719
101,50000;3,38341;1381,37089;0,01729
102,00000;3,39997;1387,41210;0,01739
102,50000;3,41663;1392,45065;0,01749
103,00000;3,43333;1397,90280;0,01759
103,50000;3,45002;1403,71528;0,01770
104,00000;3,46663;1409,42754;0,01780
104,50000;3,48330;1414,42539;0,01790
105,00000;3,50008;1419,99032;0,01801
105,50001;3,51666;1425,48634;0,01811
106,00001;3,53327;1430,61895;0,01822
106,50001;3,55002;1436,11496;0,01832
107,00001;3,56669;1442,35669;0,01843
107,50001;3,58336;1447,31067;0,01853
108,00001;3,60000;1452,31476;0,01864
108,50001;3,61663;1458,31527;0,01874
109,00001;3,63336;1463,14390;0,01884
109,50001;3,65005;1469,00648;0,01895
110,00001;3,66666;1474,75321;0,01906
110,50001;3,68339;1480,49053;0,01916
111,00001;3,70002;1484,73941;0,01927
111,50001;3,71666;1490,54565;0,01937
112,00001;3,73327;1495,53409;0,01948
112,50001;3,75002;1500,20607;0,01959
113,00001;3,76669;1506,26916;0,01970
113,50001;3,78333;1510,77509;0,01980
114,00001;3,80000;1516,60321;0,01991
114,50001;3,81669;1521,72949;0,02002
115,00001;3,83333;1526,99994;0,02013
115,50001;3,85000;1532,30168;0,02024
116,00001;3,86663;1537,51886;0,02035
116,50001;3,88333;1542,56681;0,02046
117,00001;3,90005;1547,24186;0,02057
117,50001;3,91663;1552,88521;0,02068
118,00001;3,93324;1556,94298;0,02079
118,50001;3,95005;1562,14135;0,02091
119,00001;3,96672;1568,07918;0,02102
119,50001;3,98333;1572,49402;0,02113
120,00001;4,00000;1577,62673;0,02125
120,50001;4,01669;1582,43962;0,02136
121,00001;4,03333;1587,72562;0,02147
121,50001;4,04997;1592,48542;0,02158
121,74001;4,05809;919,57916;0,00482