Folder: DeSiPro_OmniUAV_2024/02_Appendices/Appendix_C_Experimental_Data_and_Analysis Reports/C_1_Materials_Tests/C_1_1_Tensile_tests/C_1_1_5_Smooth 3D D20 (part 2)

File: Specimen_RawData_9.csv
Text Inputs : Specimen label;"1"
Dimension : Length;50,00000;mm
Dimension : Final length;100,00000;mm
Test : Rate 1;4,00000;mm/min
General : Unique Identifier;"{92AC219A-0562-4F19-A1E2-96B181ACB690}"

Time;Extension;Load;Strain 1
(sec);(mm);(N);(mm/mm)
0,00000;0,00000;-0,74845;0,00000
0,20000;0,01020;0,05370;0,00000
0,40000;0,02442;12,30540;0,00005
0,60000;0,03900;25,96400;0,00016
0,80000;0,05293;38,55724;0,00025
1,00000;0,06650;49,02289;0,00034
1,20000;0,08000;59,73293;0,00042
1,40000;0,09336;69,51236;0,00050
1,60000;0,10670;78,12614;0,00058
1,80000;0,11997;85,92837;0,00065
2,00000;0,13330;91,27399;0,00071
2,20000;0,14667;91,20506;0,00073
2,40000;0,15994;92,53050;0,00074
2,60000;0,17333;92,20463;0,00075
2,80000;0,18672;91,75028;0,00076
3,00000;0,20000;92,46157;0,00077
3,20000;0,21333;92,08869;0,00078
3,40000;0,22664;92,18582;0,00079
3,60000;0,24003;91,20193;0,00079
3,80000;0,25333;91,56227;0,00080
4,00000;0,26661;91,78161;0,00081
4,20000;0,28003;91,65314;0,00081
4,40000;0,29333;93,05378;0,00082
4,60000;0,30667;92,48037;0,00082
4,80000;0,32000;91,63434;0,00083
5,00000;0,33333;92,39576;0,00083
5,20000;0,34669;91,88501;0,00083
5,40000;0,35997;91,86621;0,00084
5,60000;0,37336;92,64643;0,00084
5,80000;0,38669;91,68760;0,00085
6,00000;0,39997;91,98528;0,00085
6,20000;0,41333;91,98528;0,00086
6,40000;0,42667;93,11645;0,00086
6,60000;0,44003;92,77804;0,00086
6,80000;0,45333;93,34519;0,00087
7,00000;0,46667;94,16614;0,00088
7,20000;0,48006;96,02114;0,00089
7,40000;0,49330;101,57044;0,00091
7,60000;0,50667;103,21235;0,00093
7,80000;0,52000;109,10631;0,00097
8,00000;0,53330;115,55804;0,00101
8,20000;0,54669;122,42338;0,00106
8,40000;0,56000;130,59222;0,00112
8,60000;0,57339;138,50098;0,00118
8,80000;0,58667;146,52882;0,00125
9,00000;0,59997;153,93310;0,00131
9,20000;0,61336;160,09968;0,00137
9,40000;0,62664;167,98025;0,00143
9,60000;0,64000;175,97362;0,00149
9,80000;0,65333;183,52831;0,00156
10,00000;0,66669;191,65642;0,00164
10,20000;0,68003;201,12875;0,00171
10,40000;0,69330;208,50485;0,00179
10,60000;0,70667;216,87422;0,00186
10,80000;0,71994;224,59184;0,00193
11,00000;0,73330;232,81395;0,00201
11,20000;0,74669;240,47517;0,00208
11,40000;0,76003;248,61896;0,00215
11,60000;0,77336;255,77883;0,00223
11,80000;0,78667;262,72251;0,00230
12,00000;0,79997;271,14202;0,00237
12,20000;0,81333;278,43977;0,00245
12,40000;0,82664;286,22632;0,00252
12,60000;0,84003;293,35488;0,00259
12,80000;0,85336;300,65263;0,00266
13,00000;0,86664;306,77221;0,00273
13,20000;0,88003;313,57172;0,00280
13,40000;0,89336;320,51853;0,00287
13,60000;0,90669;327,09246;0,00294
13,80000;0,91994;333,86066;0,00300
14,00000;0,93328;340,59754;0,00306
14,20000;0,94669;346,40378;0,00313
14,40000;0,96000;353,56679;0,00320
14,60000;0,97336;359,69575;0,00326
14,80000;0,98669;365,45501;0,00332
15,00000;0,99997;370,23975;0,00339
15,20000;1,01333;377,48108;0,00345
15,40000;1,02661;382,70764;0,00351
15,60000;1,04006;388,47001;0,00357
15,80000;1,05336;393,70595;0,00362
16,00000;1,06664;399,41506;0,00368
16,20000;1,08003;404,45672;0,00375
16,40000;1,09333;410,94292;0,00380
16,60000;1,10667;415,91255;0,00386
16,80000;1,11997;421,11715;0,00392
17,00000;1,13330;426,54113;0,00398
17,20000;1,14669;431,58908;0,00404
17,40000;1,15997;436,49287;0,00409
17,60000;1,17336;442,56547;0,00415
17,80000;1,18669;447,42855;0,00420
18,00000;1,19997;451,88111;0,00426
18,20000;1,21333;457,05754;0,00432
18,40000;1,22664;462,91705;0,00437
18,60000;1,24006;467,26624;0,00443
18,80000;1,25336;473,38582;0,00449
19,00000;1,26664;477,42794;0,00454
19,20000;1,28003;483,31879;0,00460
19,40000;1,29330;488,53280;0,00466
19,60000;1,30667;493,59328;0,00471
19,80000;1,32000;497,81404;0,00477
20,00000;1,33336;503,00611;0,00483
20,20000;1,34669;507,90990;0,00488
20,40000;1,35997;512,40325;0,00494
20,60000;1,37336;518,05279;0,00500
20,80000;1,38667;522,44901;0,00505
21,00000;1,39997;527,50008;0,00511
21,20000;1,41333;532,25663;0,00517
21,40000;1,42666;537,89681;0,00522
21,60000;1,44003;542,12692;0,00528
21,80000;1,45336;547,78904;0,00534
22,00000;1,46667;551,85934;0,00539
22,20000;1,48003;556,27748;0,00545
22,40000;1,49333;562,35632;0,00551
22,60000;1,50664;567,06583;0,00556
22,80000;1,51997;572,06368;0,00562
23,00000;1,53330;575,84257;0,00568
23,20000;1,54669;581,16000;0,00573
23,40000;1,55997;586,38342;0,00579
23,60000;1,57336;590,94881;0,00585
23,80000;1,58669;596,08766;0,00591
24,00000;1,59997;600,25509;0,00596
24,20000;1,61339;605,66654;0,00602
24,40000;1,62666;610,57345;0,00608
24,60000;1,64000;615,48669;0,00613
24,80000;1,65330;620,19620;0,00619
25,00000;1,66664;624,93710;0,00625
25,20000;1,68003;629,27688;0,00630
25,40000;1,69333;635,23352;0,00636
25,60000;1,70669;640,00259;0,00642
25,80000;1,72000;643,99457;0,00648
26,00000;1,73330;648,84201;0,00653
26,20000;1,74669;654,28475;0,00659
26,40000;1,76000;658,55249;0,00665
26,60000;1,77336;663,74145;0,00671
26,80000;1,78666;668,87396;0,00676
27,00000;1,79997;673,07591;0,00682
27,20000;1,81336;678,35259;0,00688
27,40000;1,82664;682,79579;0,00693
27,60000;1,84003;687,43955;0,00699
27,80000;1,85333;692,43736;0,00705
28,00000;1,86661;696,81159;0,00711
28,20000;1,88003;701,59947;0,00716
28,40000;1,89336;706,49078;0,00722
28,60000;1,90672;711,06870;0,00728
28,80000;1,92000;715,81895;0,00734
29,00000;1,93327;720,90765;0,00740
29,20000;1,94669;725,10960;0,00746
29,40000;1,95997;730,35178;0,00752
29,60000;1,97336;734,76993;0,00758
29,80000;1,98669;740,49155;0,00764
30,00000;2,00003;744,13260;0,00769
30,20000;2,01336;748,66666;0,00775
30,40000;2,02666;753,12238;0,00781
30,60000;2,04005;757,94472;0,00787
30,80000;2,05333;763,67892;0,00793
31,00000;2,06664;767,86205;0,00799
31,20000;2,08003;772,35224;0,00805
31,40000;2,09336;776,89881;0,00811
31,60000;2,10669;781,32320;0,00817
31,80000;2,11997;787,84702;0,00823
32,00000;2,13330;791,40346;0,00829
32,20000;2,14669;796,09733;0,00835
32,40000;2,15997;800,73169;0,00840
32,60000;2,17336;805,51635;0,00847
32,80000;2,18672;810,19457;0,00852
33,00000;2,19997;815,01063;0,00858
33,20000;2,21330;820,21533;0,00864
33,40000;2,22661;824,83711;0,00870
33,60000;2,24000;830,04171;0,00877
33,80000;2,25333;835,45316;0,00883
34,00000;2,26661;839,42628;0,00889
34,20000;2,28005;844,49938;0,00895
34,40000;2,29336;849,15562;0,00901
34,60000;2,30666;854,10327;0,00907
34,80000;2,32000;858,12658;0,00913
35,00000;2,33330;863,21840;0,00919
35,20000;2,34669;868,69560;0,00925
35,40000;2,35994;872,81298;0,00931
35,60000;2,37336;877,68855;0,00938
35,80000;2,38672;882,92770;0,00944
36,00000;2,40000;886,87576;0,00950
36,20000;2,41333;891,56022;0,00956
36,40000;2,42666;896,92464;0,00963
36,60000;2,44000;901,27699;0,00969
36,80000;2,45330;906,62893;0,00975
37,00000;2,46666;910,83394;0,00981
37,20000;2,48005;915,13926;0,00987
37,40000;2,49333;920,32822;0,00993
37,60000;2,50669;924,58026;0,01000
37,80000;2,52000;929,86953;0,01006
38,00000;2,53330;933,77689;0,01012
38,20000;2,54669;939,17269;0,01018
38,40000;2,55997;942,83251;0,01024
38,60000;2,57336;948,17812;0,01030
38,80000;2,58669;954,47628;0,01037
39,00000;2,59997;958,02648;0,01043
39,20000;2,61336;963,40030;0,01049
39,40000;2,62666;966,95358;0,01056
39,60000;2,64003;972,14887;0,01062
39,80000;2,65333;976,66094;0,01068
40,00000;2,66666;981,89069;0,01074
40,20000;2,68003;986,63783;0,01081
40,40000;2,69333;991,39744;0,01087
40,60000;2,70669;996,28251;0,01093
40,80000;2,71997;1000,63793;0,01100
41,00000;2,73330;1005,60440;0,01106
41,20000;2,74669;1010,72127;0,01112
41,40000;2,76003;1015,02659;0,01119
41,60000;2,77336;1019,98374;0,01125
41,80000;2,78666;1025,20082;0,01132
42,00000;2,79997;1029,60020;0,01138
42,20000;2,81333;1034,23763;0,01144
42,40000;2,82663;1038,60563;0,01151
42,60000;2,84003;1043,80399;0,01157
42,80000;2,85336;1047,51708;0,01164
43,00000;2,86666;1052,97239;0,01170
43,20000;2,88003;1057,51278;0,01177
43,40000;2,89336;1061,89642;0,01183
43,60000;2,90669;1066,99448;0,01190
43,80000;2,91997;1071,45337;0,01196
44,00000;2,93327;1075,59888;0,01203
44,20000;2,94669;1080,72832;0,01209
44,40000;2,96000;1085,34694;0,01216
44,60000;2,97336;1090,74898;0,01223
44,80000;2,98669;1094,95716;0,01229
45,00000;2,99997;1098,93978;0,01236
45,20000;3,01333;1104,36687;0,01242
45,40000;3,02663;1107,91698;0,01249
45,60000;3,04005;1113,00573;0,01255
45,80000;3,05336;1117,78416;0,01262
46,00000;3,06663;1122,39970;0,01269
46,20000;3,08002;1127,56360;0,01275
46,40000;3,09333;1131,20461;0,01282
46,60000;3,10669;1136,17117;0,01288
46,80000;3,11997;1140,69264;0,01295
47,00000;3,13330;1145,71555;0,01302
47,20000;3,14669;1149,45062;0,01309
47,34400;3,15621;882,99662;0,01074
47,35000;3,15663;683,11226;0,00875

File: Specimen_RawData_11.csv
Text Inputs : Specimen label;"1"
Dimension : Length;50,00000;mm
Dimension : Final length;100,00000;mm
Test : Rate 1;4,00000;mm/min
General : Unique Identifier;"{774EF2CB-2AF5-469D-9871-56B398F880A2}"

Time;Extension;Load;Strain 1
(sec);(mm);(N);(mm/mm)
0,00000;0,00000;1,56409;0,00000
0,40000;0,02442;14,51453;0,00007
0,80000;0,05291;42,69970;0,00026
1,20000;0,07997;66,20979;0,00044
1,60000;0,10670;88,45711;0,00061
2,00000;0,13330;108,61130;0,00077
2,40000;0,15997;124,15936;0,00091
2,80000;0,18672;125,62581;0,00095
3,20000;0,21333;125,92035;0,00097
3,60000;0,24003;126,20549;0,00098
4,00000;0,26661;125,99556;0,00100
4,40000;0,29333;125,58508;0,00101
4,80000;0,32000;125,85141;0,00102
5,20000;0,34669;125,49420;0,00103
5,60000;0,37336;126,23683;0,00104
6,00000;0,39997;125,76681;0,00104
6,40000;0,42664;125,39080;0,00105
6,80000;0,45330;125,25606;0,00106
7,20000;0,48003;126,28697;0,00107
7,60000;0,50667;127,59673;0,00108
8,00000;0,53328;131,99607;0,00110
8,40000;0,56000;140,23697;0,00116
8,80000;0,58669;154,45959;0,00125
9,20000;0,61336;172,20104;0,00137
9,60000;0,64000;190,02084;0,00149
10,00000;0,66667;206,73452;0,00163
10,40000;0,69333;222,93746;0,00176
10,80000;0,71997;239,46629;0,00188
11,20000;0,74669;251,15083;0,00199
11,60000;0,77336;262,39357;0,00208
12,00000;0,79997;273,67389;0,00218
12,40000;0,82664;284,89784;0,00228
12,80000;0,85336;295,33214;0,00238
13,20000;0,88003;307,06995;0,00248
13,60000;0,90669;318,81717;0,00258
14,00000;0,93328;331,41666;0,00268
14,40000;0,96000;342,52151;0,00279
14,80000;0,98669;353,80186;0,00289
15,20000;1,01333;365,24513;0,00300
15,60000;1,04006;377,38401;0,00310
16,00000;1,06664;389,71405;0,00321
16,40000;1,09333;401,17297;0,00332
16,80000;1,11997;412,89823;0,00342
17,20000;1,14669;425,95835;0,00353
17,60000;1,17336;437,76198;0,00364
18,00000;1,19997;449,69721;0,00375
18,40000;1,22664;461,69194;0,00386
18,80000;1,25333;473,44542;0,00397
19,20000;1,28003;485,12998;0,00408
19,60000;1,30667;497,94568;0,00419
20,00000;1,33336;509,96551;0,00430
20,40000;1,35997;521,66260;0,00441
20,80000;1,38667;532,76117;0,00453
21,20000;1,41333;544,95647;0,00464
21,60000;1,44003;557,39931;0,00475
22,00000;1,46667;568,62012;0,00487
22,40000;1,49333;579,10769;0,00498
22,80000;1,52000;590,03080;0,00509
23,20000;1,54669;601,76547;0,00520
23,60000;1,57336;613,32784;0,00531
24,00000;1,59994;624,94031;0,00542
24,40000;1,62666;635,63152;0,00554
24,80000;1,65333;646,39174;0,00565
25,20000;1,68003;658,33321;0,00576
25,60000;1,70669;669,58223;0,00588
26,00000;1,73330;681,83704;0,00599
26,40000;1,76000;692,86358;0,00610
26,80000;1,78666;703,74911;0,00622
27,20000;1,81336;714,15207;0,00633
27,60000;1,84000;726,56982;0,00645
28,00000;1,86664;737,45223;0,00656
28,40000;1,89336;748,53199;0,00668
28,80000;1,91997;759,52718;0,00679
29,20000;1,94669;770,54431;0,00691
29,60000;1,97336;781,73373;0,00702
30,00000;2,00003;792,41870;0,00714
30,40000;2,02664;804,07504;0,00726
30,80000;2,05333;815,13291;0,00737
31,20000;2,08003;826,91461;0,00749
31,60000;2,10669;837,17350;0,00760
32,00000;2,13330;848,09661;0,00773
32,40000;2,15997;860,40469;0,00785
32,80000;2,18672;871,14917;0,00797
33,20000;2,21333;882,78670;0,00808
33,60000;2,24003;894,03577;0,00820
34,00000;2,26661;904,91502;0,00832
34,40000;2,29336;916,83771;0,00845
34,80000;2,32000;927,68874;0,00857
35,20000;2,34669;938,79672;0,00869
35,60000;2,37336;950,20551;0,00881
36,00000;2,40000;961,46706;0,00893
36,40000;2,42666;972,52494;0,00905
36,80000;2,45330;982,58946;0,00917
37,20000;2,48005;994,42126;0,00930
37,60000;2,50666;1006,23118;0,00942
38,00000;2,53330;1016,22678;0,00954
38,40000;2,56000;1027,52596;0,00966
38,80000;2,58669;1039,01625;0,00979
39,20000;2,61339;1049,68240;0,00992
39,60000;2,64003;1060,67760;0,01004
40,00000;2,66666;1072,31829;0,01017
40,40000;2,69333;1083,49519;0,01030
40,80000;2,71997;1094,11431;0,01042
41,20000;2,74669;1105,63282;0,01055
41,60000;2,77336;1116,47444;0,01068
42,00000;2,79997;1126,64560;0,01080
42,40000;2,82663;1137,89774;0,01093
42,80000;2,85336;1149,55408;0,01106
43,20000;2,88003;1160,48027;0,01118
43,60000;2,90669;1170,15634;0,01131
44,00000;2,93327;1180,36186;0,01144
44,40000;2,96000;1191,49806;0,01157
44,80000;2,98669;1202,78466;0,01170
45,20000;3,01333;1213,91779;0,01183
45,60000;3,04005;1223,66901;0,01196
46,00000;3,06663;1234,30379;0,01209
46,40000;3,09333;1245,73773;0,01222
46,80000;3,11997;1255,95890;0,01235
47,20000;3,14669;1266,69407;0,01248
47,60000;3,17336;1278,24070;0,01262
48,00000;3,19997;1288,58099;0,01275
48,40000;3,22661;1299,65143;0,01288
48,80000;3,25336;1310,45543;0,01302
49,20000;3,28002;1320,40409;0,01315
49,60000;3,30666;1332,07925;0,01329
50,00000;3,33336;1342,39132;0,01342
50,40000;3,35997;1352,54674;0,01355
50,80000;3,38666;1363,73937;0,01369
51,20000;3,41333;1374,14550;0,01383
51,60000;3,44002;1383,85594;0,01397
52,00000;3,46666;1394,52526;0,01410
52,40000;3,49330;1405,78682;0,01424
52,80000;3,52000;1415,32496;0,01438
53,20000;3,54669;1426,21985;0,01452
53,60000;3,57336;1435,85205;0,01465
54,00000;3,59994;1446,32710;0,01479
54,40000;3,62666;1456,83344;0,01493
54,80000;3,65333;1468,01975;0,01507
55,20000;3,68002;1477,95901;0,01521
55,60000;3,70669;1488,28989;0,01536
56,00000;3,73330;1499,18171;0,01550
56,40000;3,76000;1510,30533;0,01564
56,80000;3,78666;1519,69306;0,01578
57,20000;3,81336;1530,22138;0,01593
57,60000;3,84002;1540,43324;0,01607
58,00000;3,86663;1550,55420;0,01622
58,40000;3,89336;1561,31443;0,01636
58,80000;3,91997;1570,35422;0,01651
59,20000;3,94669;1581,73796;0,01666
59,60000;3,97336;1591,09756;0,01681
60,00000;4,00000;1601,85769;0,01695
60,40000;4,02663;1610,43387;0,01710
60,80000;4,05333;1621,15656;0,01725
61,20000;4,08002;1632,07017;0,01740
61,60000;4,10669;1641,24798;0,01755
62,00000;4,13330;1650,39450;0,01770
62,40000;4,15999;1661,42415;0,01785
62,80000;4,18672;1670,58948;0,01800
63,20000;4,21333;1681,71618;0,01816
63,60000;4,24002;1691,39858;0,01831
64,00000;4,26660;1700,87405;0,01847
64,40000;4,29333;1710,76618;0,01863
64,80000;4,31999;1720,66782;0,01878
65,20000;4,34669;1730,82333;0,01894
65,60000;4,37336;1740,88478;0,01910
66,00000;4,39999;1749,37937;0,01926
66,40000;4,42663;1758,52906;0,01942
66,80000;4,45333;1768,44634;0,01957
67,20000;4,48005;1778,32916;0,01973
67,60000;4,50666;1787,43806;0,01989
68,00000;4,53330;1795,97028;0,02005
68,40000;4,55999;1805,67764;0,02021
68,80000;4,58669;1815,69532;0,02038
69,20000;4,61336;1824,17426;0,02054
69,60000;4,64002;1833,53703;0,02070
70,00000;4,66669;1842,77426;0,02087
70,40000;4,69333;1851,50392;0,02103
70,80000;4,71997;1860,98255;0,02119
71,20000;4,74669;1869,53694;0,02136
71,60000;4,77336;1878,63000;0,02153
72,00000;4,79997;1887,08398;0,02169
72,40000;4,82663;1895,60391;0,02186
72,80000;4,85333;1905,51169;0,02203
73,20000;4,88002;1913,05391;0,02220
73,60000;4,90669;1922,94922;0,02238
74,00000;4,93327;1930,80474;0,02254
74,40000;4,95999;1939,87284;0,02272
74,80000;4,98669;1948,72171;0,02289
75,20000;5,01336;1956,54277;0,02307
75,60000;5,04005;1964,64583;0,02324
76,00000;5,06663;1973,07784;0,02342
76,40000;5,09333;1981,37816;0,02359
76,80000;5,11997;1989,99513;0,02377
77,20000;5,14672;1997,08920;0,02395
77,60000;5,17336;2005,54319;0,02412
78,00000;5,19997;2013,80923;0,02430
78,40000;5,22663;2020,74982;0,02448
78,80000;5,25336;2029,57653;0,02466
79,20000;5,28002;2037,25044;0,02485
79,60000;5,30666;2044,80495;0,02503
80,00000;5,33333;2051,58256;0,02522
80,40000;5,35997;2058,53265;0,02540
80,80000;5,38669;2066,97397;0,02558
81,20000;5,41333;2073,75474;0,02577
81,60000;5,44002;2080,72979;0,02596
82,00000;5,46666;2087,88961;0,02615
82,40000;5,49333;2095,03695;0,02634
82,80000;5,51999;2102,12171;0,02653
83,20000;5,54669;2108,59850;0,02672
83,60000;5,57336;2115,99655;0,02692
84,00000;5,59994;2123,18450;0,02711
84,40000;5,62666;2128,91567;0,02730
84,80000;5,65333;2135,33286;0,02750
85,20000;5,68002;2142,26712;0,02769
85,60000;5,70669;2148,15177;0,02789
86,00000;5,73333;2154,81017;0,02809
86,40000;5,76002;2160,79503;0,02829
86,80000;5,78666;2167,33757;0,02849
87,20000;5,81336;2172,59545;0,02870
87,60000;5,84002;2178,78092;0,02890
88,00000;5,86663;2184,49626;0,02910
88,40000;5,89336;2190,45598;0,02931
88,80000;5,91999;2196,56937;0,02952
89,20000;5,94669;2201,53891;0,02973
89,60000;5,97335;2207,48316;0,02993
90,00000;5,99999;2211,53777;0,03014
90,40000;6,02663;2216,96794;0,03035
90,80000;6,05333;2223,02489;0,03057
91,20000;6,07999;2227,71876;0,03078
91,60000;6,10669;2232,35302;0,03100
92,00000;6,13330;2236,89023;0,03122
92,40000;6,15996;2242,08552;0,03144
92,80000;6,18672;2245,90525;0,03166
93,20000;6,21333;2250,89043;0,03188
93,60000;6,24002;2255,23971;0,03210
94,00000;6,26660;2259,39453;0,03232
94,40000;6,29335;2262,90710;0,03255
94,80000;6,31999;2267,56018;0,03277
95,16000;6,34404;2012,49011;0,03718
95,17200;6,34484;1246,49284;0,05330