Folder: DeSiPro_OmniUAV_2024/02_Appendices/Appendix_C_Experimental_Data_and_Analysis Reports/C_1_Materials_Tests/C_1_1_Tensile_tests/C_1_1_6_Resto Quanton 3D

Note: 02_Appendices/Appendix_C_Experimental_Data_and_Analysis Reports/C_1_Materials_Tests/README.md
# Appendix_C-1_Materials
This repository stores the dataset of materials to tensile and flexion tests.
The directory is separated into two, namely tensile tests and flexion tests.
Each directory has seven data sets, with ten to twelve experiments each, relating to six types of resins used in additive manufacturing processes. 
These data are useful for evaluating the mechanical behavior of these materials.

File: Specimen_RawData_2.csv
Text Inputs : Specimen label;"1"
Dimension : Length;50,00000;mm
Dimension : Final length;100,00000;mm
Test : Rate 1;4,00000;mm/min
General : Unique Identifier;"{C97498DD-E7A6-4ED2-A811-94207526C265}"

Time;Extension;Load;Strain 1
(sec);(mm);(N);(mm/mm)
0,00000;0,00000;0,48415;0,00000
0,40000;0,02442;13,31866;0,00003
0,80000;0,05293;38,68687;0,00024
1,20000;0,07997;60,20723;0,00042
1,60000;0,10670;79,72848;0,00059
2,00000;0,13330;97,82715;0,00075
2,40000;0,15997;113,82329;0,00089
2,80000;0,18672;116,48356;0,00094
3,20000;0,21330;116,97864;0,00096
3,60000;0,24003;116,14201;0,00097
4,00000;0,26661;116,04802;0,00098
4,40000;0,29333;115,87881;0,00099
4,80000;0,32000;115,39313;0,00100
5,20000;0,34669;116,77498;0,00100
5,60000;0,37336;115,56234;0,00101
6,00000;0,40000;115,56234;0,00102
6,40000;0,42667;115,30539;0,00102
6,80000;0,45333;116,16709;0,00103
7,20000;0,48006;116,32062;0,00103
7,60000;0,50667;115,36493;0,00104
8,00000;0,53328;117,73693;0,00105
8,40000;0,56000;131,03832;0,00116
8,80000;0,58667;142,97668;0,00124
9,20000;0,61336;160,72753;0,00139
9,60000;0,64000;178,23084;0,00153
10,00000;0,66669;194,88187;0,00168
10,40000;0,69333;210,75893;0,00183
10,80000;0,71997;227,35042;0,00197
11,20000;0,74669;242,87028;0,00211
11,60000;0,77336;257,36238;0,00225
12,00000;0,79997;273,07649;0,00240
12,40000;0,82664;287,87253;0,00254
12,80000;0,85333;301,58127;0,00268
13,20000;0,88003;315,38715;0,00281
13,60000;0,90669;328,35640;0,00294
14,00000;0,93325;341,07810;0,00306
14,40000;0,96000;351,90096;0,00318
14,80000;0,98669;363,04342;0,00329
15,20000;1,01333;372,43743;0,00340
15,60000;1,04003;382,63046;0,00351
16,00000;1,06664;392,15921;0,00361
16,40000;1,09336;402,44311;0,00371
16,80000;1,11997;411,93110;0,00381
17,20000;1,14669;420,99296;0,00391
17,60000;1,17336;431,00743;0,00401
18,00000;1,19997;439,94081;0,00412
18,40000;1,22664;449,95523;0,00422
18,80000;1,25333;459,80671;0,00432
19,20000;1,28003;469,21326;0,00442
19,60000;1,30667;479,04281;0,00453
20,00000;1,33336;488,95697;0,00464
20,40000;1,35997;498,55155;0,00474
20,80000;1,38667;509,32425;0,00485
21,20000;1,41333;517,85968;0,00495
21,60000;1,44003;526,94036;0,00506
22,00000;1,46667;537,13340;0,00517
22,40000;1,49333;547,16035;0,00527
22,80000;1,52000;557,80774;0,00538
23,20000;1,54669;566,63775;0,00549
23,60000;1,57336;576,28243;0,00560
24,00000;1,59997;586,60079;0,00571
24,40000;1,62666;596,04179;0,00582
24,80000;1,65333;606,47926;0,00592
25,20000;1,68003;616,13331;0,00604
25,60000;1,70669;625,67773;0,00615
26,00000;1,73330;635,80498;0,00626
26,40000;1,76003;645,83505;0,00637
26,80000;1,78666;657,23760;0,00648
27,20000;1,81336;666,35585;0,00660
27,60000;1,84003;675,84389;0,00672
28,00000;1,86664;686,54139;0,00683
28,40000;1,89336;695,88525;0,00694
28,80000;1,91997;707,06848;0,00706
29,20000;1,94669;716,27446;0,00718
29,60000;1,97336;726,89364;0,00729
30,00000;2,00003;735,88970;0,00741
30,40000;2,02664;746,39297;0,00752
30,80000;2,05333;756,61731;0,00764
31,20000;2,08003;766,66623;0,00776
31,60000;2,10669;776,25765;0,00787
32,00000;2,13330;786,31276;0,00799
32,40000;2,15997;796,85049;0,00811
32,80000;2,18672;807,00275;0,00823
33,20000;2,21333;816,42503;0,00835
33,60000;2,24003;827,52043;0,00847
34,00000;2,26661;837,13382;0,00859
34,40000;2,29336;847,68403;0,00872
34,80000;2,32000;858,37534;0,00884
35,20000;2,34669;868,35213;0,00896
35,60000;2,37336;878,31952;0,00909
36,00000;2,40000;888,65673;0,00921
36,40000;2,42666;898,56144;0,00933
36,80000;2,45333;909,33731;0,00946
37,20000;2,48005;919,78731;0,00958
37,60000;2,50666;929,27534;0,00971
38,00000;2,53327;939,29600;0,00983
38,40000;2,56000;949,64262;0,00996
38,80000;2,58669;959,52544;0,01009
39,20000;2,61336;969,17320;0,01022
39,60000;2,64003;979,70469;0,01035
40,00000;2,66669;990,08260;0,01048
40,40000;2,69333;1000,36021;0,01060
40,80000;2,71997;1009,93905;0,01073
41,20000;2,74669;1020,17289;0,01087
41,60000;2,77336;1030,68240;0,01099
42,00000;2,79997;1040,98199;0,01112
42,40000;2,82663;1050,27882;0,01125
42,80000;2,85336;1060,33087;0,01138
43,20000;2,88003;1071,42003;0,01151
43,60000;2,90669;1080,98956;0,01164
44,00000;2,93327;1090,69375;0,01177
44,40000;2,96000;1100,36349;0,01190
44,80000;2,98669;1110,45940;0,01203
45,20000;3,01333;1120,86236;0,01217
45,60000;3,04005;1130,35664;0,01230
46,00000;3,06663;1140,04835;0,01243
46,40000;3,09333;1150,70827;0,01257
46,80000;3,11997;1160,04897;0,01270
47,20000;3,14669;1169,66860;0,01284
47,60000;3,17336;1179,83967;0,01298
48,00000;3,19997;1189,71625;0,01312
48,40000;3,22663;1199,12280;0,01325
48,80000;3,25333;1208,95552;0,01339
49,20000;3,28002;1219,13282;0,01353
49,60000;3,30666;1228,83394;0,01367
50,00000;3,33336;1237,71410;0,01381
50,40000;3,35997;1247,94161;0,01395
50,80000;3,38666;1257,91840;0,01409
51,20000;3,41333;1268,22740;0,01423
51,60000;3,44002;1277,03855;0,01437
52,00000;3,46666;1287,32249;0,01451
52,40000;3,49333;1297,43088;0,01466
52,80000;3,52000;1307,23221;0,01480
53,20000;3,54669;1317,01166;0,01495
53,60000;3,57336;1326,91646;0,01509
54,00000;3,59994;1335,56779;0,01523
54,40000;3,62666;1345,11534;0,01538
54,80000;3,65333;1353,75420;0,01553
55,20000;3,68002;1364,05379;0,01567
55,60000;3,70669;1373,46350;0,01582
56,00000;3,73330;1382,36871;0,01596
56,40000;3,76000;1391,99765;0,01611
56,80000;3,78666;1401,35093;0,01626
57,20000;3,81336;1410,33446;0,01641
57,60000;3,84002;1419,16759;0,01656
58,00000;3,86663;1428,86871;0,01671
58,40000;3,89336;1438,43191;0,01686
58,80000;3,91997;1447,02066;0,01701
59,20000;3,94669;1457,06329;0,01716
59,60000;3,97336;1465,33549;0,01731
60,00000;4,00000;1474,64806;0,01746
60,40000;4,02663;1483,25870;0,01761
60,80000;4,05336;1492,85011;0,01776
61,20000;4,08002;1502,83631;0,01792
61,60000;4,10669;1510,75134;0,01807
62,00000;4,13330;1518,66637;0,01823
62,40000;4,15997;1527,33661;0,01838
62,80000;4,18672;1536,43610;0,01854
63,20000;4,21333;1545,19090;0,01869
63,60000;4,24002;1554,30604;0,01885
64,00000;4,26660;1561,70400;0,01901
64,40000;4,29333;1570,85676;0,01917
64,80000;4,31999;1580,03755;0,01932
65,20000;4,34669;1588,02792;0,01949
65,60000;4,37336;1596,28447;0,01965
66,00000;4,39999;1604,90442;0,01981
66,40000;4,42663;1612,86965;0,01996
66,80000;4,45333;1621,23274;0,02013
67,20000;4,48005;1629,97823;0,02029
67,60000;4,50666;1638,58887;0,02046
68,00000;4,53330;1645,67046;0,02062
68,40000;4,55999;1653,96146;0,02079
68,80000;4,58669;1662,50635;0,02095
69,20000;4,61339;1670,41197;0,02112
69,60000;4,64002;1678,93488;0,02128
70,00000;4,66669;1686,96269;0,02145
70,40000;4,69333;1694,41085;0,02162
70,80000;4,71997;1702,46065;0,02179
71,20000;4,74669;1710,69838;0,02196
71,60000;4,77336;1717,96791;0,02214
72,00000;4,79997;1725,79214;0,02231
72,40000;4,82663;1733,22149;0,02248
72,80000;4,85336;1740,92967;0,02266
73,20000;4,88002;1748,69429;0,02284
73,60000;4,90669;1755,81649;0,02301
74,00000;4,93327;1763,29911;0,02319
74,40000;4,95999;1770,38703;0,02337
74,80000;4,98669;1778,02630;0,02355
75,20000;5,01336;1784,78509;0,02373
75,60000;5,04005;1792,96955;0,02391
76,00000;5,06663;1799,16117;0,02409
76,40000;5,09336;1806,28672;0,02427
76,80000;5,11997;1813,07681;0,02445
77,20000;5,14672;1819,34685;0,02464
77,60000;5,17336;1826,94849;0,02483
78,00000;5,19997;1834,12712;0,02502
78,40000;5,22663;1840,83581;0,02520
78,80000;5,25333;1846,92722;0,02539
79,20000;5,28002;1854,31261;0,02558
79,60000;5,30666;1861,18111;0,02577
80,00000;5,33336;1866,83387;0,02596
80,40000;5,35997;1873,15699;0,02614
80,80000;5,38666;1880,11322;0,02634
81,20000;5,41333;1886,42722;0,02654
81,60000;5,44002;1893,25493;0,02673
82,00000;5,46666;1899,53111;0,02693
82,40000;5,49333;1905,35933;0,02713
82,80000;5,51999;1911,32538;0,02733
83,20000;5,54669;1917,87425;0,02752
83,60000;5,57336;1923,20421;0,02773
84,00000;5,59997;1929,25800;0,02793
84,40000;5,62666;1935,16444;0,02813
84,80000;5,65333;1940,70749;0,02834
85,20000;5,68002;1946,69552;0,02855
85,58800;5,70589;1630,39174;0,01906
85,59800;5,70655;1067,12729;-0,00006

File: Specimen_RawData_4.csv
Text Inputs : Specimen label;"1"
Dimension : Length;50,00000;mm
Dimension : Final length;100,00000;mm
Test : Rate 1;4,00000;mm/min
General : Unique Identifier;"{79C473C0-28A8-4850-BAC1-B7ADDF7A53B2}"

Time;Extension;Load;Strain 1
(sec);(mm);(N);(mm/mm)
0,00000;0,00000;0,25600;0,00000
0,30000;0,01715;5,02820;0,00003
0,60000;0,03900;28,16227;0,00020
0,90000;0,05977;47,63652;0,00036
1,20000;0,08000;66,29294;0,00050
1,50000;0,10003;81,99454;0,00064
1,80000;0,11997;96,18895;0,00077
2,10000;0,14003;109,59061;0,00089
2,40000;0,15997;119,46090;0,00099
2,70000;0,18000;120,28499;0,00103
3,00000;0,20000;120,95241;0,00106
3,30000;0,21991;122,03658;0,00108
3,60000;0,24003;123,34948;0,00110
3,90000;0,26000;123,59389;0,00112
4,20000;0,28006;125,22640;0,00113
4,50000;0,30000;124,61852;0,00115
4,80000;0,32000;125,06347;0,00116
5,10000;0,34003;125,37681;0,00116
5,40000;0,35994;125,79355;0,00117
5,70000;0,38003;126,31684;0,00118
6,00000;0,40000;125,83429;0,00118
6,30000;0,41997;127,66734;0,00119
6,60000;0,44003;129,11186;0,00120
6,90000;0,46000;130,13335;0,00121
7,20000;0,48006;130,80704;0,00122
7,50000;0,50000;134,96822;0,00125
7,80000;0,51997;140,90607;0,00128
8,10000;0,54000;148,71457;0,00134
8,40000;0,56000;157,55083;0,00141
8,70000;0,58000;168,68702;0,00150
9,00000;0,59997;179,75428;0,00158
9,30000;0,61997;192,42585;0,00168
9,60000;0,64000;204,70261;0,00178
9,90000;0,66003;216,79136;0,00189
10,20000;0,68003;230,16795;0,00200
10,50000;0,70000;243,03694;0,00210
10,80000;0,71997;254,97528;0,00221
11,10000;0,74000;267,31158;0,00231
11,40000;0,76003;279,47868;0,00242
11,70000;0,77997;292,03745;0,00253
12,00000;0,79997;304,58369;0,00264
12,30000;0,81994;318,06054;0,00276
12,60000;0,84000;330,71644;0,00288
12,90000;0,86003;342,93055;0,00299
13,20000;0,88003;355,03183;0,00311
13,50000;0,90006;365,85783;0,00322
13,80000;0,91997;377,93403;0,00332
14,10000;0,94000;389,96639;0,00344
14,40000;0,96000;401,01483;0,00355
14,70000;0,97997;412,85921;0,00366
15,00000;0,99997;423,88886;0,00377
15,30000;1,01994;436,34735;0,00389
15,60000;1,04006;448,41729;0,00400
15,90000;1,06003;459,93580;0,00412
16,20000;1,08003;470,75236;0,00423
16,50000;1,10000;481,18355;0,00433
16,80000;1,11997;490,44592;0,00443
17,10000;1,14003;499,93084;0,00453
17,40000;1,15997;508,19679;0,00462
17,70000;1,18000;515,28462;0,00471
18,00000;1,19997;524,44986;0,00480
18,30000;1,21991;533,12005;0,00489
18,60000;1,24003;541,09464;0,00498
18,90000;1,26003;549,96223;0,00506
19,20000;1,28003;557,62972;0,00515
19,50000;1,30000;566,36571;0,00524
19,80000;1,32000;575,40876;0,00534
20,10000;1,34003;583,77814;0,00543
20,40000;1,35997;592,26346;0,00552
20,70000;1,38000;600,04066;0,00561
21,00000;1,39997;608,81423;0,00570
21,30000;1,41994;617,71944;0,00578
21,60000;1,44003;625,85380;0,00587
21,90000;1,46003;634,01009;0,00596
22,20000;1,48003;641,52093;0,00605
22,50000;1,50000;649,77752;0,00614
22,80000;1,52000;658,50094;0,00623
23,10000;1,54003;667,27768;0,00632
23,40000;1,56000;675,32118;0,00641
23,70000;1,57997;683,57778;0,00650
24,00000;1,59997;691,26408;0,00660
24,30000;1,61997;700,15672;0,00669
24,60000;1,64003;708,39762;0,00677
24,90000;1,66003;716,06510;0,00687
25,20000;1,68003;724,27783;0,00696
25,50000;1,70000;731,69153;0,00705
25,80000;1,72000;740,42752;0,00714
26,10000;1,74003;748,05426;0,00723
26,40000;1,76003;756,51449;0,00732
26,70000;1,77997;764,30733;0,00741
27,00000;1,79997;771,82758;0,00750
27,30000;1,81994;780,21577;0,00759
27,60000;1,84003;788,99562;0,00768
27,90000;1,86003;797,19573;0,00777
28,20000;1,88003;804,49041;0,00786
28,50000;1,90005;813,18878;0,00795
28,80000;1,91997;820,18571;0,00805
29,10000;1,94000;829,11905;0,00814
29,40000;1,95997;837,23776;0,00823
29,70000;1,97997;845,02753;0,00832
30,00000;2,00003;852,72007;0,00842
30,30000;2,01994;861,87907;0,00851
30,60000;2,04005;870,46148;0,00861
30,90000;2,06003;877,39574;0,00870
31,20000;2,08000;885,40791;0,00879
31,50000;2,10003;893,56424;0,00889
31,80000;2,11997;902,22508;0,00898
32,10000;2,14003;909,60115;0,00907
32,40000;2,15997;918,28695;0,00917
32,70000;2,18000;925,86046;0,00926
33,00000;2,19997;933,64073;0,00936
33,30000;2,21994;942,11670;0,00945
33,60000;2,24003;950,52989;0,00955
33,90000;2,26000;957,80892;0,00964
34,20000;2,28003;966,16885;0,00974
34,50000;2,30003;973,91158;0,00983
34,80000;2,32000;982,30913;0,00993
35,10000;2,34003;990,14901;0,01002
35,40000;2,35997;998,24574;0,01012
35,70000;2,38003;1006,31434;0,01022
36,00000;2,40000;1014,50505;0,01032
36,30000;2,41997;1022,06292;0,01041
36,60000;2,44000;1030,66107;0,01051
36,90000;2,46003;1038,87999;0,01061
37,20000;2,48005;1046,25607;0,01071
37,50000;2,50000;1054,69758;0,01080
37,80000;2,51997;1062,02038;0,01090
38,10000;2,54000;1070,50249;0,01100
38,40000;2,56000;1078,46772;0,01110
38,70000;2,57997;1086,71486;0,01120
39,00000;2,59997;1094,85555;0,01130
39,30000;2,61997;1103,36589;0,01140
39,60000;2,64003;1110,25628;0,01150
39,90000;2,66003;1117,93634;0,01160
40,20000;2,68003;1126,21170;0,01170
40,50000;2,70003;1134,05781;0,01180
40,80000;2,71997;1142,46476;0,01190
41,10000;2,74000;1150,34534;0,01200
41,40000;2,76000;1158,63951;0,01210
41,70000;2,77997;1165,34196;0,01221
42,00000;2,79997;1172,90914;0,01231
42,30000;2,81994;1181,15945;0,01241
42,60000;2,84003;1189,04319;0,01251
42,90000;2,86003;1196,16855;0,01261
43,20000;2,88003;1204,70719;0,01272
43,50000;2,90005;1211,42520;0,01282
43,80000;2,92000;1219,76016;0,01292
44,10000;2,94003;1228,32069;0,01302
44,40000;2,96000;1235,98501;0,01313
44,70000;2,97997;1242,97254;0,01323
45,00000;2,99997;1250,47080;0,01334
45,30000;3,01994;1259,48880;0,01344
45,60000;3,04005;1267,21272;0,01355
45,90000;3,06003;1274,14074;0,01365
46,20000;3,08002;1282,66988;0,01376
46,50000;3,10000;1290,85444;0,01386
46,80000;3,11997;1298,02367;0,01397
47,10000;3,14003;1306,25209;0,01407
47,40000;3,15997;1314,41150;0,01418
47,70000;3,18000;1321,78133;0,01429
48,00000;3,19997;1329,24207;0,01439
48,30000;3,21991;1336,96282;0,01450
48,60000;3,24002;1344,31375;0,01461
48,90000;3,26002;1351,99698;0,01472
49,20000;3,28002;1359,78041;0,01482
49,50000;3,30002;1367,43225;0,01493
49,80000;3,32000;1374,78635;0,01504
50,10000;3,34005;1382,22510;0,01515
50,40000;3,35997;1389,52909;0,01526
50,70000;3,37997;1397,29371;0,01538
51,00000;3,39997;1404,65414;0,01548
51,30000;3,41994;1412,59739;0,01559
51,60000;3,44002;1420,11447;0,01570
51,90000;3,46000;1427,21487;0,01581
52,20000;3,48002;1434,58461;0,01592
52,50000;3,50000;1442,66579;0,01603
52,80000;3,52000;1450,03553;0,01614
53,10000;3,54002;1457,65292;0,01626
53,40000;3,56000;1465,31099;0,01637
53,70000;3,57997;1472,53983;0,01648
54,00000;3,59994;1479,87837;0,01659
54,30000;3,61997;1487,71815;0,01671
54,60000;3,64002;1494,39545;0,01682
54,90000;3,66002;1501,95016;0,01693
55,20000;3,68002;1509,44842;0,01705
55,50000;3,70000;1516,93737;0,01716
55,80000;3,72000;1524,43564;0,01728
56,10000;3,74002;1532,30680;0,01740
56,40000;3,76002;1539,01232;0,01751
56,70000;3,77997;1545,84320;0,01763
57,00000;3,79997;1553,35404;0,01774
57,30000;3,81994;1561,24402;0,01787
57,60000;3,84002;1567,57347;0,01798
57,90000;3,86002;1574,33860;0,01810
58,20000;3,88002;1581,66140;0,01822
58,50000;3,90005;1588,19444;0,01833
58,80000;3,92000;1595,71785;0,01845
59,10000;3,94000;1603,59535;0,01857
59,40000;3,96000;1609,61468;0,01869
59,70000;3,97997;1616,48002;0,01881
60,00000;4,00000;1624,00957;0,01893
60,30000;4,01994;1631,10364;0,01905
60,60000;4,04005;1637,89690;0,01917
60,90000;4,06002;1644,98780;0,01929
61,20000;4,08002;1652,55517;0,01941
61,50000;4,10005;1658,12951;0,01953
61,80000;4,11997;1665,65273;0,01965
62,10000;4,14002;1673,21060;0,01978
62,40000;4,15997;1678,90098;0,01990
62,70000;4,18002;1686,78463;0,02002
63,00000;4,19997;1693,98524;0,02014
63,30000;4,21994;1699,50631;0,02026
63,60000;4,24002;1707,06734;0,02039
63,90000;4,26000;1713,64117;0,02052
64,20000;4,28002;1720,06469;0,02064
64,50000;4,29999;1726,93636;0,02077
64,80000;4,31999;1733,41949;0,02089
65,10000;4,34002;1741,07756;0,02102
65,40000;4,35997;1746,42317;0,02115
65,70000;4,38002;1752,92492;0,02128
66,00000;4,39999;1760,67706;0,02141
66,30000;4,41994;1765,54024;0,02153
66,60000;4,44002;1772,58104;0,02166
66,90000;4,46002;1779,08912;0,02179
67,20000;4,48005;1784,78248;0,02192
67,50000;4,49999;1790,63883;0,02205
67,80000;4,51999;1797,09997;0,02218
68,10000;4,54002;1804,15642;0,02231
68,40000;4,55999;1809,96582;0,02244
68,70000;4,57999;1816,17327;0,02257
69,00000;4,59997;1823,66837;0,02270
69,30000;4,61997;1828,32144;0,02284
69,60000;4,64002;1834,51623;0,02297
69,90000;4,66002;1840,95856;0,02310
70,20000;4,68005;1846,43585;0,02324
70,50000;4,69999;1852,69956;0,02337
70,80000;4,71997;1858,65611;0,02351
71,10000;4,73999;1864,31203;0,02364
71,40000;4,76002;1871,12093;0,02378
71,70000;4,77999;1876,88321;0,02392
72,00000;4,79997;1882,69578;0,02405
72,30000;4,81997;1888,77471;0,02419
72,60000;4,83999;1894,60590;0,02432
72,90000;4,86002;1900,16143;0,02446
73,20000;4,88002;1906,50355;0,02460
73,50000;4,90005;1911,84916;0,02475
73,80000;4,91999;1917,43616;0,02488
74,10000;4,93999;1923,42103;0,02502
74,40000;4,95999;1928,98586;0,02517
74,70000;4,97997;1935,40938;0,02531
75,00000;4,99999;1940,04681;0,02545
75,30000;5,01994;1945,45202;0,02559
75,60000;5,04005;1951,09844;0,02574
75,90000;5,06002;1956,49434;0,02588
76,20000;5,08002;1961,78965;0,02602
76,50000;5,10002;1967,11030;0,02617
76,80000;5,11997;1971,99527;0,02631
77,10000;5,14005;1978,71644;0,02646
77,40000;5,15997;1982,79005;0,02660
77,70000;5,17999;1988,62124;0,02675
78,00000;5,19997;1992,54435;0,02690
78,30000;5,21994;1998,09354;0,02705
78,60000;5,24002;2003,34527;0,02720
78,90000;5,26002;2007,39354;0,02734
79,20000;5,28002;2012,74231;0,02750
79,50000;5,29999;2017,25140;0,02765
79,80000;5,31999;2022,45917;0,02780
80,10000;5,34005;2026,51694;0,02795
80,40000;5,35997;2031,29537;0,02810
80,70000;5,37997;2036,57523;0,02825
81,00000;5,39997;2041,20949;0,02841
81,30000;5,41997;2045,75621;0,02856
81,60000;5,44002;2050,19619;0,02871
81,90000;5,46002;2054,54230;0,02886
81,95400;5,46361;1202,10638;0,04217