Folder: DeSiPro_OmniUAV_2024/02_Appendices/Appendix_C_Experimental_Data_and_Analysis Reports/C_1_Materials_Tests/C_1_1_Tensile_tests/C_1_1_4_Impact Smooth 3D2

Note: 02_Appendices/Appendix_C_Experimental_Data_and_Analysis Reports/C_1_Materials_Tests/README.md
# Appendix_C-1_Materials
This repository stores the dataset of materials to tensile and flexion tests.
The directory is separated into two, namely tensile tests and flexion tests.
Each directory has seven data sets, with ten to twelve experiments each, relating to six types of resins used in additive manufacturing processes. 
These data are useful for evaluating the mechanical behavior of these materials.

File: Specimen_RawData_6.csv
Text Inputs : Specimen label;"1"
Dimension : Length;50,00000;mm
Dimension : Final length;100,00000;mm
Test : Rate 1;4,00000;mm/min
General : Unique Identifier;"{755CE41D-BCD3-46ED-8E53-0074CC35562D}"

Time;Extension;Load;Strain 1
(sec);(mm);(N);(mm/mm)
0,00000;0,00000;-8,83795;-0,00064
1,20000;0,08003;24,70537;0,00041
2,40000;0,15997;57,28672;0,00159
3,60000;0,23997;87,65903;0,00273
4,80000;0,32006;100,49040;0,00333
6,00000;0,39997;99,60050;0,00343
7,20000;0,48003;100,64393;0,00353
8,40000;0,55997;101,74064;0,00363
9,60000;0,63994;111,52945;0,00398
10,80000;0,72003;135,97645;0,00486
12,00000;0,79997;164,05194;0,00593
13,20000;0,88008;193,11759;0,00702
14,40000;0,95997;220,60713;0,00810
15,60000;1,04000;246,26988;0,00917
16,80000;1,12003;271,96084;0,01024
18,00000;1,19991;296,01615;0,01130
19,20000;1,28003;321,26529;0,01235
20,40000;1,35994;344,75971;0,01340
21,60000;1,43997;369,23178;0,01446
22,80000;1,52006;391,87078;0,01550
24,00000;1,60003;414,21209;0,01654
25,20000;1,68000;436,68500;0,01759
26,40000;1,75997;459,18613;0,01863
27,60000;1,83991;480,41823;0,01967
28,80000;1,92003;501,09257;0,02071
30,00000;1,99997;522,25576;0,02174
31,20000;2,08005;542,85801;0,02276
32,40000;2,16000;562,88685;0,02379
33,60000;2,23997;583,89334;0,02482
34,80000;2,32005;601,90740;0,02584
36,00000;2,39997;621,71691;0,02687
37,20000;2,48000;639,33618;0,02788
38,40000;2,55997;657,12775;0,02891
39,60000;2,63994;676,71482;0,02994
40,80000;2,72005;692,64830;0,03098
42,00000;2,79997;709,72233;0,03201
43,20000;2,88005;726,98435;0,03306
44,40000;2,95997;743,87668;0,03411
45,60000;3,03997;761,46773;0,03518
46,80000;3,12005;777,26333;0,03624
48,00000;3,19991;793,05265;0,03732
49,20000;3,28002;808,59754;0,03842
50,40000;3,35994;824,33987;0,03951
51,60000;3,43994;840,30470;0,04063
52,80000;3,52008;854,89079;0,04174
54,00000;3,60002;869,70879;0,04288
55,20000;3,68002;883,44254;0,04402
56,40000;3,75997;897,32986;0,04517
57,60000;3,83991;910,62812;0,04634
58,80000;3,92002;923,72904;0,04751
60,00000;3,99994;936,38487;0,04869
61,20000;4,08005;949,07219;0,04989
62,30800;4,15367;960,86012;0,05100
63,50800;4,23378;972,71698;0,05222
64,70800;4,31378;983,53671;0,05345
65,90800;4,39367;995,03323;0,05470
67,10800;4,47376;1005,54898;0,05595
68,30800;4,55367;1015,68252;0,05722
69,50800;4,63376;1026,21084;0,05851
70,70800;4,71373;1035,87117;0,05981
71,90800;4,79367;1044,44735;0,06112
73,10800;4,87378;1053,21780;0,06245
74,30800;4,95367;1061,80655;0,06379
75,50800;5,03384;1069,64326;0,06515
76,70800;5,11375;1077,48304;0,06651
77,90800;5,19364;1084,42362;0,06789
79,10800;5,27375;1091,58037;0,06929
80,30800;5,35364;1097,69050;0,07068
81,50800;5,43375;1103,91034;0,07211
82,70800;5,51381;1109,79807;0,07354
83,90800;5,59373;1115,19694;0,07499
85,10800;5,67375;1120,29817;0,07644
86,30800;5,75370;1125,26463;0,07791
87,50800;5,83378;1128,89633;0,07940
88,70800;5,91375;1134,38610;0,08090
89,90800;5,99367;1137,78273;0,08240
91,10800;6,07378;1141,08529;0,08394
92,30800;6,15364;1144,47568;0,08546
93,50800;6,23381;1147,45870;0,08701
94,70800;6,31375;1151,38805;0,08857
95,90800;6,39370;1153,98569;0,09014
97,10800;6,47375;1156,21034;0,09172
98,30800;6,55370;1157,99960;0,09330
99,50800;6,63375;1161,12046;0,09490
100,70800;6,71375;1163,95624;0,09651
101,90800;6,79367;1164,56412;0,09812
103,10800;6,87378;1165,82690;0,09975
104,30800;6,95367;1167,33406;0,10139
105,50801;7,03384;1168,09234;0,10304
106,70801;7,11375;1170,24817;0,10469
107,90801;7,19364;1171,29153;0,10635
109,10801;7,27372;1171,59234;0,10802
110,30801;7,35370;1173,17792;0,10970
111,50801;7,43381;1172,87710;0,11139
112,70801;7,51375;1174,16801;0,11308
113,90801;7,59372;1174,32475;0,11478
115,10801;7,67375;1174,61616;0,11649
116,30801;7,75369;1175,15195;0,11820
117,50801;7,83378;1175,20206;0,11991
118,70801;7,91372;1176,30502;0,12163
119,90801;7,99367;1176,29878;0,12336
121,10801;8,07375;1176,12332;0,12509
122,30801;8,15367;1175,51228;0,12683
123,50801;8,23381;1175,06105;0,12858
124,70801;8,31378;1174,75400;0,13033
125,90801;8,39367;1174,95768;0,13209
127,10801;8,47375;1174,91689;0,13385
128,30801;8,55369;1174,46259;0,13561
129,50801;8,63375;1175,78804;0,13738
130,70801;8,71375;1174,94203;0,13916
131,90801;8,79366;1174,47516;0,14094
133,10801;8,87378;1174,74459;0,14272
134,30801;8,95366;1174,08661;0,14450
135,50801;9,03384;1172,62956;0,14629
136,70801;9,11375;1173,63222;0,14808
137,90801;9,19364;1172,74551;0,14987
139,10801;9,27372;1173,20297;0,15167
140,30801;9,35364;1171,58294;0,15347
141,50801;9,43378;1171,10983;0,15529
142,70801;9,51375;1171,23201;0,15709
143,90801;9,59372;1171,14428;0,15890
145,10801;9,67375;1170,49254;0,16072
146,30801;9,75369;1170,05389;0,16253
147,50801;9,83375;1169,64020;0,16435
148,70801;9,91375;1170,01310;0,16617
149,90801;9,99366;1168,88192;0,16800
151,10801;10,07378;1168,95093;0,16983
152,30801;10,15366;1168,59991;0,17165
153,50801;10,23378;1168,49970;0,17348
154,70801;10,31381;1168,12056;0,17531
155,90801;10,39369;1167,63487;0,17714
157,10801;10,47375;1167,65676;0,17897
158,30801;10,55369;1167,04265;0,18080
159,50801;10,63375;1166,60399;0,18262
160,70801;10,71375;1167,61290;0,18446
161,90801;10,79366;1165,80809;0,18629
163,10801;10,87381;1165,12813;0,18813
164,30801;10,95366;1165,91770;0,18996
165,50801;11,03383;1165,45716;0,19181
166,70801;11,11378;1166,34071;0,19365
167,90801;11,19363;1165,07486;0,19550
169,10801;11,27372;1165,13753;0,19733
170,30801;11,35363;1165,35062;0,19918
171,50801;11,43378;1164,44500;0,20103
172,70801;11,51380;1163,79010;0,20287
173,90801;11,59372;1163,79326;0,20471
175,10801;11,67375;1164,18181;0,20655
176,30801;11,75366;1163,65850;0,20840
177,50801;11,83377;1162,41146;0,21025
178,70801;11,91372;1163,47363;0,21210
179,90801;11,99369;1162,95042;0,21395
181,10801;12,07378;1162,76238;0,21580
182,30801;12,15363;1162,32680;0,21765
183,50801;12,23380;1161,49336;0,21951
184,70801;12,31378;1160,88856;0,22136
185,90801;12,39369;1162,39889;0,22321
187,10801;12,47375;1161,98529;0,22507
188,30801;12,55369;1160,74756;0,22692
189,50801;12,63375;1161,43692;0,22878
190,70801;12,71375;1161,61238;0,23063
191,90801;12,79366;1160,92935;0,23249
193,10801;12,87380;1161,35543;0,23434
194,30801;12,95366;1160,82281;0,23619
195,50801;13,03383;1160,13968;0,23805
196,70801;13,11377;1161,14868;0,23990
197,90801;13,19363;1160,75072;0,24175
199,10801;13,27375;1161,07343;0,24361
200,30801;13,35363;1160,62220;0,24546
201,50801;13,43377;1160,39347;0,24731
202,70801;13,51377;1160,67240;0,24917
203,90801;13,59375;1161,33979;0,25103
205,10801;13,67375;1160,80083;0,25288
206,30801;13,75366;1161,34295;0,25473
207,50801;13,83377;1159,71984;0,25659
208,70801;13,91374;1161,09848;0,25845
209,90801;13,99366;1160,38099;0,26029
211,10801;14,07374;1161,24582;0,26215
212,30801;14,15363;1161,04214;0,26400
213,50801;14,23380;1160,68805;0,26585
214,70801;14,31380;1160,92935;0,26770
215,90801;14,39366;1161,17056;0,26955
217,10801;14,47377;1160,78518;0,27141
218,30801;14,55369;1160,83222;0,27326
219,50801;14,63374;1161,30533;0,27512
220,70801;14,71374;1161,38989;0,27697
221,90801;14,79366;1161,04530;0,27882
223,10801;14,87377;1161,30216;0,28068
224,30801;14,95369;1161,28651;0,28254
225,50801;15,03383;1161,41187;0,28440
226,70801;15,11374;1162,33937;0,28626
227,90801;15,19363;1162,06044;0,28811
229,10801;15,27374;1162,51484;0,28996
230,30801;15,35363;1162,69970;0,29181
231,50801;15,43377;1162,38948;0,29366
232,70801;15,51377;1162,49919;0,29551
233,90801;15,59372;1162,72792;0,29737
235,10801;15,67377;1163,10082;0,29922
236,30801;15,75371;1163,00052;0,30107
237,50801;15,83374;1162,96606;0,30293
238,70801;15,91374;1163,86851;0,30478
239,90801;15,99368;1163,77762;0,30662
241,10801;16,07374;1164,47322;0,30847
242,30801;16,15366;1163,90605;0,31033
243,50801;16,23380;1163,77138;0,31218
244,70801;16,31377;1164,58293;0,31403
245,90801;16,39368;1164,68007;0,31588
247,10801;16,47377;1165,04980;0,31772
248,30801;16,55366;1165,17199;0,31956
249,50801;16,63374;1165,60748;0,32140
250,70801;16,71377;1166,07752;0,32325
251,90801;16,79368;1166,39091;0,32509
253,10801;16,87380;1166,32823;0,32693
254,30801;16,95366;1166,28436;0,32877
255,50801;17,03383;1167,12721;0,33062
256,70801;17,11374;1168,11423;0,33245
257,90801;17,19363;1168,11739;0,33429
259,10801;17,27374;1168,37434;0,33613
260,30801;17,35368;1168,35870;0,33797
261,50801;17,43380;1168,44010;0,33981
262,70801;17,51380;1170,74633;0,34164
263,90801;17,59371;1170,27629;0,34348
265,10801;17,67374;1170,35778;0,34532
266,30801;17,75368;1169,81259;0,34715
267,50801;17,83377;1170,04756;0,34898
268,70801;17,91374;1171,40124;0,35080
269,90801;17,99368;1171,59234;0,35263
271,10801;18,07377;1171,93703;0,35446
272,30801;18,15363;1171,56729;0,35628
273,50801;18,23382;1171,78978;0,35811
274,70801;18,31377;1173,37843;0,35994
275,90801;18,39365;1172,83631;0,36177
277,10801;18,47377;1173,74500;0,36359
278,30801;18,55368;1174,00819;0,36542
279,50801;18,63374;1175,71913;0,36725
280,70801;18,71374;1175,48723;0,36908
281,90801;18,79365;1174,67567;0,37091
283,10801;18,87380;1175,44960;0,37273
284,30801;18,95368;1175,16136;0,37455
285,50801;19,03383;1175,90083;0,37637
286,70801;19,11377;1176,90666;0,37819
287,90801;19,19363;1176,96309;0,38000
289,10801;19,27374;1177,83416;0,38181
290,30801;19,35365;1177,62731;0,38361
291,50801;19,43379;1177,31085;0,38543
292,70801;19,51377;1178,13181;0,38724
293,90801;19,59371;1178,36371;0,38906
295,10801;19,67377;1179,83641;0,39087
296,30801;19,75368;1179,60768;0,39269
297,50801;19,83380;1179,74868;0,39450
298,70801;19,91374;1180,66994;0,39631
299,90801;19,99365;1180,62915;0,39811
301,10801;20,07377;1182,45911;0,39992
302,30801;20,15365;1182,27107;0,40173
303,50801;20,23380;1182,13948;0,40353
304,70801;20,31377;1182,15829;0,40533
305,90801;20,39368;1184,09786;0,40713
307,10801;20,47374;1183,88794;0,40892
308,30801;20,55368;1184,04776;0,41073
309,50801;20,63374;1185,25410;0,41254
310,70801;20,71377;1184,76525;0,41434
311,90801;20,79368;1185,09112;0,41613
313,10801;20,87379;1186,09387;0,41792
314,30801;20,95368;1187,13416;0,41971
315,50801;21,03382;1187,09346;0,42151
316,70802;21,11376;1188,01780;0,42330
317,90802;21,19365;1188,60370;0,42509
318,74002;21,24921;699,74549;0,44377