Folder: DeSiPro_OmniUAV_2024/02_Appendices/Appendix_C_Experimental_Data_and_Analysis Reports/C_1_Materials_Tests/C_1_1_Tensile_tests/C_1_1_4_Impact Smooth 3D

Note: 02_Appendices/Appendix_C_Experimental_Data_and_Analysis Reports/C_1_Materials_Tests/README.md
# Appendix_C-1_Materials
This repository stores the dataset of materials to tensile and flexion tests.
The directory is separated into two, namely tensile tests and flexion tests.
Each directory has seven data sets, with ten to twelve experiments each, relating to six types of resins used in additive manufacturing processes. 
These data are useful for evaluating the mechanical behavior of these materials.

File: Specimen_RawData_2.csv
Text Inputs : Specimen label;"1"
Dimension : Length;50,00000;mm
Dimension : Final length;100,00000;mm
Test : Rate 1;4,00000;mm/min
General : Unique Identifier;"{51D68FB4-6FF7-4A8A-9B63-97C6936456A4}"

Time;Extension;Load;Strain 1
(sec);(mm);(N);(mm/mm)
0,00000;0,00000;0,39235;0,00001
1,10000;0,03664;9,54509;0,00022
2,20000;0,07330;21,53671;0,00052
3,30000;0,11003;33,14292;0,00080
4,40000;0,14664;42,02618;0,00110
5,50000;0,18328;51,79620;0,00139
6,60000;0,24983;72,09140;0,00193
7,70000;0,32325;90,52220;0,00252
8,80000;0,39664;107,34244;0,00309
9,90000;0,46994;109,11282;0,00327
11,00000;0,54328;108,09132;0,00337
12,10000;0,61658;108,43601;0,00345
13,20000;0,68997;109,84291;0,00354
14,30000;0,76325;113,11107;0,00369
15,40000;0,83664;124,06553;0,00401
16,50000;0,90994;140,64761;0,00448
17,60000;0,98325;154,88904;0,00498
18,70000;1,05658;171,71553;0,00554
19,80000;1,12997;189,03398;0,00613
20,90000;1,20327;205,54087;0,00671
22,00000;1,27655;221,80961;0,00731
23,10000;1,34994;238,04700;0,00791
24,20000;1,42330;252,36676;0,00850
25,30000;1,49658;268,01510;0,00910
26,40000;1,56994;281,92750;0,00970
27,50000;1,64330;296,52927;0,01030
28,60000;1,71658;310,60148;0,01090
29,70000;1,78991;324,08461;0,01150
30,80000;1,86325;336,90659;0,01210
31,90000;1,93664;350,30511;0,01270
33,00000;2,00991;362,96728;0,01330
34,10000;2,08325;375,88014;0,01391
35,20000;2,15661;388,36997;0,01452
36,30000;2,22988;400,13283;0,01513
37,40000;2,30327;410,73635;0,01574
38,50000;2,37661;422,62459;0,01636
39,60000;2,44994;433,16539;0,01697
40,70000;2,52324;443,88175;0,01759
41,80000;2,59664;454,09985;0,01821
42,90000;2,66994;464,33671;0,01883
44,00000;2,74327;473,63988;0,01946
45,10000;2,81658;483,87679;0,02009
46,20000;2,88994;492,42163;0,02072
47,30000;2,96324;500,66565;0,02135
48,40000;3,03663;510,22577;0,02199
49,50000;3,10994;517,63942;0,02262
50,60000;3,18319;525,70174;0,02326
51,70000;3,25663;532,88043;0,02390
52,80000;3,32997;540,72337;0,02454
53,90000;3,40333;548,48799;0,02518
55,00000;3,47655;553,31350;0,02583
56,10000;3,55000;560,93084;0,02649
57,20000;3,62327;566,63053;0,02715
58,30000;3,69661;572,88487;0,02781
59,40000;3,76991;580,11054;0,02848
60,50000;3,84330;586,07347;0,02916
61,60000;3,91658;591,60707;0,02984
62,70000;3,98991;596,23513;0,03052
63,80000;4,06327;601,22982;0,03122
64,90000;4,13663;605,74822;0,03191
66,00000;4,20994;610,44525;0,03261
67,10000;4,28324;615,74699;0,03332
68,20000;4,35663;619,40681;0,03403
69,30000;4,42988;624,46729;0,03474
70,40000;4,50330;628,25875;0,03547
71,50000;4,57658;631,88411;0,03620
72,60000;4,64997;636,89137;0,03693
73,70000;4,72321;639,98406;0,03766
74,80000;4,79660;643,52169;0,03841
75,90000;4,86991;646,64572;0,03916
77,00000;4,94327;649,65067;0,03991
78,10000;5,01658;653,27915;0,04067
79,20000;5,08994;656,83248;0,04143
80,30000;5,16324;660,24791;0,04220
81,40000;5,23660;661,91801;0,04297
82,50000;5,30997;665,09531;0,04375
83,60000;5,38318;666,51790;0,04453
84,70000;5,45663;669,56673;0,04532
85,80000;5,52997;671,81024;0,04611
86,90000;5,60330;673,48662;0,04691
88,00000;5,67655;675,77716;0,04770
89,10000;5,74994;677,65093;0,04851
90,20000;5,82330;678,81346;0,04932
91,30000;5,89657;682,01581;0,05013
92,30600;5,96347;683,83319;0,05087
93,40600;6,03686;684,47869;0,05169
94,50600;6,11022;686,73790;0,05252
95,60600;6,18350;687,90978;0,05335
96,70600;6,25689;689,67706;0,05418
97,80600;6,33019;691,32522;0,05502
98,90600;6,40358;691,87358;0,05585
100,00600;6,47683;693,02982;0,05670
101,10600;6,55025;695,41745;0,05755
102,20600;6,62353;696,17261;0,05840
103,30600;6,69686;697,12517;0,05925
104,40600;6,77019;698,14040;0,06010
105,50601;6,84358;698,43810;0,06096
106,60601;6,91683;699,86694;0,06182
107,70601;6,99019;701,33340;0,06268
108,80601;7,06352;702,23892;0,06355
109,90601;7,13692;702,47394;0,06442
111,00601;7,21019;703,51111;0,06529
112,10601;7,28350;704,70492;0,06617
113,20601;7,35692;705,24705;0,06704
114,30601;7,43016;706,61320;0,06792
115,40601;7,50355;707,15840;0,06881
116,50601;7,57683;707,48427;0,06969
117,60601;7,65019;708,38043;0,07058
118,70601;7,72350;709,77169;0,07146
119,80601;7,79689;708,80032;0,07235
120,90601;7,87019;710,22916;0,07324
122,00601;7,94350;710,78064;0,07414
123,10601;8,01686;711,04071;0,07503
124,20601;8,09019;711,86484;0,07593
125,30601;8,16350;712,18442;0,07682
126,40601;8,23686;713,75426;0,07772
127,50601;8,31025;713,31249;0,07862
128,60601;8,38347;713,69787;0,07952
129,70601;8,45688;714,35277;0,08042
130,80601;8,53019;714,68176;0,08133
131,90601;8,60358;714,81024;0,08223
133,00601;8,67683;716,15763;0,08314
134,10601;8,75025;715,83176;0,08405
135,20601;8,82352;716,80625;0,08496
136,30601;8,89683;716,96602;0,08587
137,40601;8,97022;718,57977;0,08679
138,50601;9,04358;718,27583;0,08770
139,60601;9,11686;718,20375;0,08862
140,70601;9,19016;719,43207;0,08953
141,80601;9,26361;718,78657;0,09045
142,90601;9,33688;718,95891;0,09136
144,00601;9,41022;719,81745;0,09228
145,10601;9,48349;719,53232;0,09319
146,20601;9,55691;719,96786;0,09411
147,30601;9,63016;721,59725;0,09503
148,40601;9,70358;720,93923;0,09595
149,50601;9,77686;721,13038;0,09687
150,60601;9,85019;721,76019;0,09779
151,70601;9,92349;722,37747;0,09871
152,80601;9,99691;722,08294;0,09964
153,90601;10,07022;723,09189;0,10056
155,00601;10,14349;723,48355;0,10148
156,10601;10,21688;724,05385;0,10241
157,20601;10,29019;723,80002;0,10333
158,30601;10,36352;724,62414;0,10425
159,40601;10,43685;724,28258;0,10518
160,50601;10,51022;725,50774;0,10610
161,60601;10,58346;724,64291;0,10702
162,70601;10,65688;724,29827;0,10794
163,80601;10,73019;725,94332;0,10887
164,90601;10,80355;726,06551;0,10979
166,00601;10,87682;726,00911;0,11070
167,10601;10,95022;726,79562;0,11163
168,20601;11,02355;727,09327;0,11255
169,30601;11,09682;726,77680;0,11348
170,40601;11,17019;727,14342;0,11440
171,50601;11,24355;728,53779;0,11533
172,60601;11,31685;727,58524;0,11625
173,70601;11,39016;728,34976;0,11718
174,80601;11,46352;729,62195;0,11810
175,90601;11,53691;728,47200;0,11903
177,00601;11,61019;729,12062;0,11995
178,10601;11,68352;729,87573;0,12088
179,20601;11,75691;729,85697;0,12180
180,30601;11,83021;730,37082;0,12272
181,40601;11,90358;731,11034;0,12365
182,50601;11,97691;730,38335;0,12456
183,60601;12,05019;731,03826;0,12549
184,70601;12,12355;730,86903;0,12641
185,80601;12,19688;731,38606;0,12733
186,90601;12,27024;731,79025;0,12826
188,00601;12,34349;732,71776;0,12918
189,10601;12,41685;732,15687;0,13010
190,20601;12,49021;733,36326;0,13102
191,30601;12,56349;732,71152;0,13194
192,40601;12,63688;732,89950;0,13287
193,50601;12,71024;734,06827;0,13379
194,60601;12,78349;733,71418;0,13471
195,70601;12,85685;733,81760;0,13563
196,80601;12,93024;734,93938;0,13655
197,90601;13,00355;734,54143;0,13747
199,00601;13,07685;734,19046;0,13839
200,10601;13,15021;735,13049;0,13931
201,20601;13,22358;735,95145;0,14023
202,30601;13,29679;736,13632;0,14114
203,40601;13,37018;736,26796;0,14206
204,50601;13,44355;737,09516;0,14298
205,60601;13,51685;735,98279;0,14389
206,70601;13,59016;737,38033;0,14481
207,80601;13,66355;736,68468;0,14573
208,90601;13,73691;737,14843;0,14665
210,00601;13,81018;737,66857;0,14756
211,10601;13,88352;738,09158;0,14848
212,20601;13,95691;738,77783;0,14939
213,30601;14,03015;739,25722;0,15031
214,40601;14,10355;738,40492;0,15122
215,50601;14,17691;739,17578;0,15214
216,60601;14,25018;740,46673;0,15305
217,70601;14,32352;740,35078;0,15396
218,80601;14,39691;739,36689;0,15487
219,90601;14,47021;741,09654;0,15578
221,00601;14,54354;741,38171;0,15669
222,10601;14,61685;741,25635;0,15760
223,20601;14,69024;741,56029;0,15851
224,30601;14,76352;741,95825;0,15942
225,40601;14,83691;741,38171;0,16032
226,50601;14,91024;742,02716;0,16123
227,60601;14,98352;742,47527;0,16214
228,70601;15,05685;742,50973;0,16304
229,80601;15,13024;743,29306;0,16395
230,90601;15,20354;743,30564;0,16486
232,00601;15,27682;744,02629;0,16576
233,10601;15,35021;744,69997;0,16667
234,20601;15,42354;744,25503;0,16757
235,30601;15,49685;745,77164;0,16847
236,40601;15,57018;745,02272;0,16937
237,50601;15,64357;745,24521;0,17027
238,60601;15,71685;746,16019;0,17117
239,70601;15,79018;745,69643;0,17206
240,80601;15,86351;746,25416;0,17296
241,90601;15,93688;746,79311;0,17386
243,00601;16,01018;747,13151;0,17475
244,10601;16,08351;747,42292;0,17565
245,20601;16,15687;747,94935;0,17655
246,30601;16,23015;748,11541;0,17744
247,40601;16,30351;749,17139;0,17834
248,50601;16,37690;748,62302;0,17923
249,60601;16,45018;749,33432;0,18013
250,70601;16,52348;749,68841;0,18102
251,80601;16,59690;750,40283;0,18191
252,90601;16,67021;749,71975;0,18280
254,00601;16,74354;749,61944;0,18369
255,10601;16,81685;751,08903;0,18458
256,20601;16,89021;750,35896;0,18547
257,30601;16,96351;751,99148;0,18635
258,40601;17,03690;751,75958;0,18724
259,50601;17,11024;751,81914;0,18812
260,60601;17,18348;752,48657;0,18901
261,70601;17,25690;752,25155;0,18989
262,80601;17,33024;752,50533;0,19077
263,90601;17,40357;752,88136;0,19166
265,00601;17,47682;753,63340;0,19254
266,10601;17,55024;753,90912;0,19342
267,20601;17,62354;754,54833;0,19430
268,30601;17,69687;754,99327;0,19518
269,40601;17,77018;754,90871;0,19606
270,50601;17,84357;755,54475;0,19694
271,60601;17,91684;755,88319;0,19782
272,70601;17,99021;755,90513;0,19870
273,80601;18,06351;756,55687;0,19958
274,90601;18,13690;756,58509;0,20045
276,00601;18,21018;756,52865;0,20133
277,10601;18,28351;757,05820;0,20220
278,20601;18,35690;757,74132;0,20308
279,30601;18,43015;757,29634;0,20396
280,40601;18,50357;758,37425;0,20485
281,41801;18,57098;384,87620;0,22540
282,43401;18,63875;7,16369;0,27030
283,53401;18,71209;7,95018;0,27859
284,63401;18,78534;7,10728;0,28457
285,04201;18,81257;8,70533;0,28649