Folder: DeSiPro_OmniUAV_2024/02_Appendices/Appendix_C_Experimental_Data/C_1_Materials_Tests/C_1_1_Tensile_tests/C_1_1_1_Quantun_70_30 (part 2)

File: Specimen_RawData_6.csv
Text Inputs : Specimen label;"1"
Dimension : Length;50,00000;mm
Dimension : Final length;100,00000;mm
Test : Rate 1;2,00000;mm/min
General : Unique Identifier;"{0C58638E-AE79-4222-BB03-821CDA982B15}"

Time;Extension;Load;Strain 1
(sec);(mm);(N);(mm/mm)
0,00000;0,00028;16,28520;-0,00097
1,80000;0,06011;66,55161;-0,00057
3,60000;0,11994;102,35414;-0,00023
5,40000;0,17977;103,28477;-0,00018
7,20000;0,23989;104,71675;-0,00016
9,00000;0,30000;105,06768;-0,00013
10,80000;0,36040;105,76644;-0,00011
12,60000;0,41994;108,56146;-0,00007
14,40000;0,48006;111,86409;-0,00001
16,20000;0,54017;136,19513;0,00021
18,00000;0,59971;179,33614;0,00061
19,80000;0,66011;222,92836;0,00103
21,60000;0,71966;261,49768;0,00142
23,40000;0,77977;297,40047;0,00180
25,20000;0,83989;333,46934;0,00217
27,00000;0,89971;367,70827;0,00254
28,80000;0,96040;401,97857;0,00292
30,60000;1,01937;434,99856;0,00328
32,40000;1,08034;467,77423;0,00366
34,20000;1,13988;500,31482;0,00402
36,00000;1,20057;533,46646;0,00441
37,80000;1,25926;563,93277;0,00477
39,60000;1,32023;597,79882;0,00516
41,40000;1,37977;628,86048;0,00552
43,20000;1,43988;659,95976;0,00590
45,00000;1,49971;690,06258;0,00628
46,80000;1,56011;720,44111;0,00666
48,60000;1,61994;752,23288;0,00704
50,40000;1,68006;781,19827;0,00742
52,20000;1,74045;811,39505;0,00781
54,00000;1,80000;840,26325;0,00819
55,80000;1,86011;869,23810;0,00857
57,60000;1,91937;898,09066;0,00895
59,40000;1,98062;924,58064;0,00932
61,20000;2,04017;949,23442;0,00966
63,00000;2,10000;974,60262;0,01003
64,80000;2,15897;998,10334;0,01038
66,60000;2,22023;1024,02307;0,01074
68,40000;2,27948;1048,13790;0,01110
70,20000;2,34017;1072,86684;0,01147
72,00000;2,39943;1096,40835;0,01182
73,80000;2,46040;1120,60150;0,01219
75,60000;2,51994;1143,65406;0,01255
77,40000;2,58005;1166,77247;0,01292
79,20000;2,64045;1189,85642;0,01329
81,00000;2,70028;1212,41398;0,01366
82,80000;2,76011;1234,06909;0,01402
84,60000;2,81937;1255,66777;0,01439
86,40000;2,88005;1277,60489;0,01476
88,20000;2,94017;1298,16644;0,01514
90,00000;3,00000;1318,93475;0,01551
91,80000;3,05983;1340,52411;0,01589
93,60000;3,12022;1360,54037;0,01628
95,40000;3,18005;1381,51869;0,01666
97,20000;3,23988;1401,56951;0,01705
99,00000;3,30028;1422,30336;0,01745
100,80000;3,36011;1440,69660;0,01784
102,60000;3,41994;1460,62830;0,01823
104,40000;3,47977;1479,01215;0,01863
106,20001;3,54017;1497,63720;0,01903
108,00001;3,60028;1516,65080;0,01944
109,80001;3,65954;1533,74989;0,01984
111,60001;3,71994;1551,85796;0,02026
113,40001;3,78005;1569,29232;0,02068
115,20001;3,84045;1586,69539;0,02110
117,00001;3,90000;1603,78199;0,02152
118,80001;3,96011;1620,69928;0,02195
120,60001;4,01994;1636,93354;0,02238
122,40001;4,08034;1654,10470;0,02283
124,20001;4,13960;1669,65276;0,02326
126,00001;4,20085;1686,67976;0,02372
127,80001;4,25982;1700,49202;0,02416
129,60001;4,32051;1716,97382;0,02463
131,40001;4,37920;1730,30645;0,02509
133,20001;4,44017;1745,77311;0,02556
135,00001;4,49943;1758,45101;0,02603
136,80001;4,56011;1772,89601;0,02651
138,60001;4,62022;1786,03455;0,02700
140,40001;4,68034;1798,61840;0,02749
142,20001;4,74017;1810,56298;0,02798
144,00001;4,79942;1822,61728;0,02847
145,80001;4,86068;1835,06627;0,02898
147,60001;4,92051;1846,56288;0,02950
149,40001;4,98034;1857,18518;0,03001
151,20001;5,03931;1867,29357;0,03052
153,00001;5,10028;1878,13528;0,03106
154,80001;5,15982;1888,14979;0,03159
156,60001;5,21994;1897,20523;0,03213
158,40001;5,27920;1906,16995;0,03267
160,20001;5,34016;1915,19745;0,03323
162,00001;5,39971;1922,39806;0,03378
163,80001;5,46039;1930,86769;0,03435
165,60001;5,51994;1938,13089;0,03492
167,40001;5,58034;1945,87987;0,03550
169,20001;5,63959;1951,82711;0,03607
171,00001;5,69971;1957,57076;0,03666
172,80001;5,76039;1963,93169;0,03726
174,60001;5,82022;1969,18957;0,03786
176,40001;5,87977;1973,98365;0,03846
178,20001;5,93931;1978,38303;0,03906
180,00001;6,00056;1984,01678;0,03969
181,80001;6,06039;1988,56350;0,04031
183,60001;6,11994;1992,33610;0,04095
185,40001;6,18033;1996,41585;0,04159
187,20001;6,23988;1998,03580;0,04222
189,00001;6,30028;2002,38805;0,04287
190,80001;6,36011;2006,31749;0,04353
192,60001;6,41994;2007,97506;0,04419
194,40001;6,48005;2009,86769;0,04485
196,20001;6,54016;2012,58436;0,04553
198,00001;6,59999;2014,65543;0,04620
199,80001;6,65982;2015,42638;0,04688
201,60001;6,72022;2016,37261;0,04757
203,40001;6,77948;2017,03385;0,04825
205,20001;6,83988;2018,82925;0,04895
207,00001;6,89942;2018,66310;0,04964
208,72001;6,95783;2019,85072;0,05033
210,52001;7,01737;2021,21995;0,05104
212,32001;7,07777;2020,66861;0,05175
214,12001;7,13703;2020,48682;0,05246
215,92001;7,19771;2020,95062;0,05319
217,72001;7,25640;2019,67526;0,05391
219,52001;7,31794;2020,82526;0,05466
221,32001;7,37692;2018,78231;0,05538
223,12001;7,43760;2019,80378;0,05613
224,92001;7,49600;2016,92414;0,05686
226,72001;7,55783;2018,44703;0,05762
228,52001;7,61737;2017,15901;0,05837
230,32001;7,67748;2016,36329;0,05912
232,12001;7,73703;2014,16034;0,05987
233,92001;7,79743;2013,53058;0,06063
235,72001;7,85754;2012,61248;0,06139
237,52001;7,91708;2011,11473;0,06215
239,32001;7,97777;2010,10257;0,06292
241,12001;8,03674;2008,00635;0,06368
242,92001;8,09743;2006,90646;0,06446
244,72001;8,15669;2005,44316;0,06524
246,52001;8,21737;2003,93293;0,06601
248,32001;8,27691;2001,61412;0,06679
250,12001;8,33731;2001,95890;0,06758
251,92001;8,39743;2000,42035;0,06837
253,72001;8,45754;1998,67189;0,06916
255,52001;8,51737;1996,61646;0,06995
257,32001;8,57720;1995,09040;0,07074
259,12001;8,63703;1993,29183;0,07153
260,92001;8,69800;1991,48376;0,07233
262,72001;8,75697;1989,38437;0,07311
264,52001;8,81680;1987,79255;0,07390
266,32001;8,87691;1985,85000;0,07470
268,12001;8,93788;1985,23272;0,07551
269,92001;8,99714;1983,20523;0,07630
271,72001;9,05725;1981,84848;0,07711
273,52001;9,11708;1980,50123;0,07791
275,32001;9,17748;1979,22587;0,07872
277,12001;9,23731;1976,89459;0,07952
278,92001;9,29800;1975,89807;0,08034
280,72001;9,35668;1973,04040;0,08113
282,52001;9,41737;1973,17842;0,08195
284,32001;9,47691;1970,91922;0,08276
286,12001;9,53788;1969,66883;0,08358
287,92001;9,59714;1968,50952;0,08439
289,72001;9,65697;1966,70778;0,08520
291,52001;9,71651;1965,53282;0,08601
293,32001;9,77720;1964,53016;0,08683
295,12001;9,83760;1963,24233;0,08764
296,92001;9,89685;1959,64500;0,08845
298,72001;9,95782;1960,35318;0,08927
300,52001;10,01708;1958,70195;0,09008
302,32001;10,07777;1957,36699;0,09090
304,12001;10,13703;1955,23314;0,09171
305,92001;10,19771;1954,32771;0,09254
307,72001;10,25697;1953,54745;0,09336
309,52001;10,31765;1952,67014;0,09418
311,32001;10,37663;1949,12311;0,09499
313,12001;10,43788;1949,48968;0,09583
314,92001;10,49686;1947,96044;0,09664
316,72002;10,55754;1948,14540;0,09748
318,52002;10,61623;1945,53845;0,09829
320,32002;10,67777;1944,92731;0,09912
322,12002;10,73703;1943,35431;0,09993
323,92002;10,79742;1941,67793;0,10076
325,72002;10,85754;1941,43057;0,10159
327,52002;10,91765;1940,04234;0,10241
329,32002;10,97720;1938,06514;0,10322
331,12002;11,03646;1936,60818;0,10405
332,92002;11,09771;1937,08763;0,10489
334,72002;11,15697;1934,95359;0,10570
336,52002;11,21737;1934,24243;0,10653
338,32002;11,27691;1933,82259;0,10736
340,12002;11,33731;1933,17700;0,10819
341,92002;11,39742;1931,97373;0,10902
343,72002;11,45754;1931,19664;0,10985
345,52002;11,51765;1930,89284;0,11068
347,32002;11,57748;1929,42638;0,11151
349,12002;11,63702;1928,22944;0,11234
350,92002;11,69714;1926,48396;0,11316
352,72002;11,75725;1925,54090;0,11399
354,52002;11,81794;1924,94858;0,11482
356,32002;11,87691;1923,58568;0,11564
358,12002;11,93702;1922,96207;0,11647
359,92002;11,99714;1921,77128;0,11730
361,72002;12,05754;1921,13835;0,11813
363,52002;12,11680;1919,86319;0,11895
365,32002;12,17776;1919,24274;0,11979
367,12002;12,23759;1918,96390;0,12062
368,92002;12,29742;1918,25572;0,12145
370,72002;12,35697;1916,52291;0,12228
372,52002;12,41822;1917,35011;0,12312
374,32002;12,47776;1916,38507;0,12395
376,12002;12,53731;1915,21626;0,12478
377,92002;12,59628;1913,74663;0,12560
379,72002;12,65754;1913,68721;0,12644
381,52002;12,71736;1914,02864;0,12727
383,32002;12,77719;1912,48711;0,12810
385,12002;12,83702;1911,58466;0,12893
386,92002;12,89657;1909,40052;0,12975
388,72002;12,95754;1910,70419;0,13058
390,52002;13,01708;1908,92126;0,13141
392,32002;13,07805;1909,16564;0,13225
394,12002;13,13645;1906,00082;0,13306
395,92002;13,19771;1907,14449;0,13390
397,72002;13,25640;1905,58415;0,13472
399,52002;13,31793;1907,13201;0,13558
401,32002;13,37719;1905,99449;0,13640
403,12002;13,43731;1905,39602;0,13723
404,92002;13,49600;1903,40634;0,13805
406,72002;13,55782;1904,49059;0,13890
408,52002;13,61736;1904,42167;0,13973
410,32002;13,67748;1904,08323;0,14056
412,12002;13,73702;1902,33160;0,14138
413,92002;13,79771;1902,62925;0,14222
415,72002;13,85725;1902,04009;0,14304
417,52002;13,91736;1900,77107;0,14387
419,32002;13,97776;1900,86830;0,14470
421,12002;14,03702;1899,43947;0,14553
422,92002;14,09742;1899,22955;0,14636
424,72002;14,15668;1898,52454;0,14719
426,52002;14,21736;1898,48691;0,14802
428,32002;14,27662;1897,31494;0,14884
430,12002;14,33759;1898,27699;0,14968
431,92002;14,39714;1897,25850;0,15051
433,72002;14,45753;1897,27433;0,15135
435,52002;14,51708;1896,58497;0,15218
437,32002;14,57719;1897,29296;0,15301
439,12002;14,63759;1897,33692;0,15385
440,92002;14,69799;1896,42198;0,15468
442,72002;14,75696;1895,77341;0,15550
444,52002;14,81708;1895,14980;0,15634
446,32002;14,87691;1895,05257;0,15716
448,12002;14,93788;1894,83333;0,15800
449,92002;14,99685;1894,45410;0,15881
451,72002;15,05753;1894,99315;0,15966
453,52002;15,11679;1893,81186;0,16048
455,32002;15,17776;1893,91207;0,16132
457,12002;15,23731;1894,94304;0,16215
458,92002;15,29742;1893,98732;0,16299
460,72002;15,35725;1894,62025;0,16382
462,52002;15,41708;1894,91790;0,16466
464,32002;15,47634;1893,25716;0,16549
466,12002;15,53816;1894,62341;0,16635
467,92002;15,59742;1894,10951;0,16718
469,72002;15,65696;1893,45144;0,16803
471,52002;15,71651;1892,52403;0,16887
473,32002;15,77747;1892,89991;0,16973
475,12002;15,83730;1892,07587;0,17059
475,36202;15,84556;1100,80140;0,18548

File: Specimen_RawData_9.csv
Text Inputs : Specimen label;"1"
Dimension : Length;50,00000;mm
Dimension : Final length;100,00000;mm
Test : Rate 1;2,00000;mm/min
General : Unique Identifier;"{F406A3CB-6C5B-4562-A6FE-F41218412086}"

Time;Extension;Load;Strain 1
(sec);(mm);(N);(mm/mm)
0,00000;0,00000;10,49356;0,00009
1,40000;0,04644;51,65110;0,00037
2,80000;0,09316;86,97421;0,00073
4,20000;0,13960;108,80792;0,00100
5,60000;0,18689;110,18977;0,00108
7,00000;0,23362;111,33973;0,00113
8,40000;0,27977;110,56891;0,00115
9,80000;0,32593;110,49684;0,00117
11,20000;0,37293;111,40553;0,00118
12,60000;0,42023;113,03178;0,00120
14,00000;0,46667;113,24486;0,00121
15,40000;0,51339;128,26023;0,00132
16,80000;0,56011;148,33922;0,00149
18,20000;0,60598;172,05612;0,00171
19,60000;0,65356;200,51701;0,00195
21,00000;0,70028;231,71341;0,00227
22,40000;0,74701;262,23923;0,00259
23,80000;0,79373;291,30175;0,00291
25,20000;0,83989;320,09480;0,00323
26,60000;0,88718;348,64659;0,00355
28,00000;0,93333;375,27443;0,00386
29,40000;0,98034;402,71385;0,00418
30,80000;1,02649;428,58650;0,00449
32,20000;1,07407;455,03890;0,00481
33,60000;1,11966;480,28491;0,00512
35,00000;1,16610;504,37781;0,00543
36,40000;1,21282;529,58936;0,00575
37,80000;1,25897;554,75077;0,00605
39,20000;1,30712;580,22551;0,00637
40,60000;1,35299;603,14965;0,00666
42,00000;1,40000;627,70005;0,00697
43,40000;1,44615;649,54315;0,00727
44,80000;1,49231;671,90956;0,00757
46,20000;1,54017;693,75266;0,00786
47,60000;1,58689;714,26095;0,00813
49,00000;1,63362;732,66979;0,00841
50,40000;1,68006;754,73227;0,00869
51,80000;1,72678;773,86810;0,00898
53,20000;1,77350;793,50211;0,00925
54,60000;1,82051;812,31836;0,00952
56,00000;1,86723;830,90896;0,00980
57,40000;1,91367;849,18309;0,01007
58,80000;1,96040;866,32920;0,01034
60,20000;2,00684;884,61898;0,01060
61,60000;2,05356;902,26643;0,01087
63,00000;2,10000;919,20579;0,01114
64,40000;2,14644;936,72471;0,01141
65,80000;2,19373;954,72625;0,01169
67,20000;2,24045;971,33964;0,01196
68,60000;2,28661;988,92450;0,01223
70,00000;2,33333;1006,23351;0,01250
71,40000;2,37948;1022,18576;0,01277
72,80000;2,42735;1040,77011;0,01306
74,20000;2,47350;1056,33074;0,01333
75,60000;2,51994;1073,38596;0,01360
77,00000;2,56638;1089,34445;0,01388
78,40000;2,61253;1106,36214;0,01416
79,80000;2,66011;1123,05386;0,01445
81,20000;2,70655;1138,33873;0,01473
82,60000;2,75327;1154,55734;0,01502
84,00000;2,79943;1169,92677;0,01530
85,40000;2,84672;1186,43055;0,01559
86,80000;2,89373;1201,58382;0,01587
88,20000;2,94017;1217,82124;0,01616
89,60000;2,98689;1232,56398;0,01645
91,00000;3,03276;1247,73290;0,01674
92,40000;3,08062;1263,97340;0,01704
93,80000;3,12706;1278,52196;0,01733
95,20000;3,17379;1293,76287;0,01763
96,60000;3,21994;1306,88259;0,01793
98,00000;3,26638;1322,11419;0,01822
99,40000;3,31424;1337,88781;0,01853
100,80000;3,36011;1350,40581;0,01882
102,20000;3,40655;1365,07340;0,01913
103,60000;3,45327;1378,16174;0,01944
105,00000;3,49971;1392,70080;0,01975
106,40001;3,54615;1405,95837;0,02005
107,80001;3,59287;1419,98045;0,02037
109,20001;3,63960;1433,11890;0,02069
110,60001;3,68632;1447,09395;0,02101
112,00001;3,73276;1459,38322;0,02131
113,40001;3,78005;1472,79119;0,02163
114,80001;3,82621;1484,58537;0,02195
116,20001;3,87322;1497,81471;0,02227
117,60001;3,91937;1508,90388;0,02259
119,00001;3,96695;1521,73219;0,02292
120,40001;4,01367;1533,40735;0,02325
121,80001;4,06011;1545,14508;0,02358
123,20001;4,10712;1556,29069;0,02392
124,60001;4,15270;1566,79396;0,02424
126,00001;4,20085;1579,25859;0,02459
127,40001;4,24672;1589,65532;0,02493
128,80001;4,29373;1601,07054;0,02527
130,20001;4,34017;1611,11001;0,02561
131,60001;4,38632;1621,90460;0,02595
133,00001;4,43361;1632,68354;0,02630
134,40001;4,48005;1641,14069;0,02665
135,80001;4,52706;1651,64080;0,02700
137,20001;4,57350;1661,12874;0,02735
138,60001;4,61994;1670,60439;0,02771
140,00001;4,66666;1679,24948;0,02806
141,40001;4,71282;1687,81299;0,02842
142,80001;4,75982;1696,99714;0,02879
144,20001;4,80598;1704,78057;0,02916
145,60001;4,85356;1714,07424;0,02953
147,00001;4,89971;1720,34111;0,02989
148,40001;4,94586;1728,14969;0,03027
149,80001;4,99259;1735,51943;0,03064
151,20001;5,03931;1743,88252;0,03103
152,60001;5,08660;1751,21166;0,03142
154,00001;5,13333;1758,63784;0,03181
155,40001;5,18005;1765,51268;0,03220
156,80001;5,22649;1771,99263;0,03259
158,20001;5,27236;1777,39765;0,03298
159,60001;5,32022;1784,31943;0,03339
161,00001;5,36723;1790,96851;0,03379
162,40001;5,41367;1796,18895;0,03420
163,80001;5,46068;1802,20194;0,03461
165,20001;5,50683;1807,40971;0,03502
166,60001;5,55384;1811,65226;0,03543
168,00001;5,60056;1816,99488;0,03584
169,40001;5,64729;1822,13988;0,03626
170,80001;5,69344;1826,52976;0,03667
172,20001;5,74045;1831,31769;0,03709
173,60001;5,78660;1834,16288;0,03752
175,00001;5,83276;1838,19868;0,03794
176,40001;5,87977;1843,05552;0,03837
177,80001;5,92592;1845,33354;0,03880
179,20001;5,97350;1850,53498;0,03925
180,60001;6,01965;1852,59357;0,03968
182,00001;6,06638;1856,67016;0,04013
183,40001;6,11310;1860,07004;0,04057
184,80001;6,15868;1862,35420;0,04101
186,20001;6,20683;1865,34040;0,04148
187,60001;6,25355;1868,58978;0,04192
189,00001;6,30028;1871,80154;0,04238
190,40001;6,34672;1873,53753;0,04284
191,80001;6,39316;1875,50522;0,04330
193,20001;6,44016;1877,93672;0,04376
194,60001;6,48689;1879,84817;0,04423
196,00001;6,53390;1881,55286;0,04470
197,40001;6,57976;1883,68354;0,04517
198,80001;6,62734;1886,38456;0,04564
200,20001;6,67350;1885,98335;0,04611
201,60001;6,72022;1888,13619;0,04659
203,00001;6,76666;1889,33630;0,04706
204,40001;6,81310;1890,03497;0,04754
205,80001;6,86068;1891,64244;0,04803
207,20001;6,90683;1892,36309;0,04851
208,60001;6,95327;1892,77045;0,04899
210,00001;6,99999;1894,59417;0,04948
211,40001;7,04615;1893,54122;0,04997
212,71601;7,09059;1894,81657;0,05044
214,11601;7,13674;1895,74398;0,05093
215,51601;7,18347;1895,44950;0,05143
216,91601;7,23019;1896,76862;0,05193
218,31601;7,27663;1895,95707;0,05242
219,71601;7,32364;1896,50860;0,05293
221,11601;7,37036;1896,19530;0,05343
222,51601;7,41709;1896,69356;0,05394
223,91601;7,46381;1897,13836;0,05445
225,31601;7,51110;1897,47997;0,05497
226,71601;7,55783;1897,28886;0,05548
228,11601;7,60427;1896,84387;0,05598
229,51601;7,65099;1896,59633;0,05650
230,91601;7,69686;1895,58119;0,05700
232,31601;7,74472;1896,24541;0,05753
233,71601;7,79087;1895,08926;0,05804
235,11601;7,83731;1893,33763;0,05855
236,51601;7,88375;1893,13069;0,05907
237,91601;7,92962;1891,84286;0,05959
239,31601;7,97777;1892,13753;0,06013
240,71601;8,02335;1891,72383;0,06066
242,11601;8,07093;1891,28201;0,06119
243,51601;8,11680;1890,15716;0,06171
244,91601;8,16238;1887,58466;0,06223
246,31601;8,20996;1888,70952;0,06277
247,71601;8,25697;1887,77894;0,06331
249,11601;8,30369;1887,35910;0,06385
250,51601;8,35042;1886,92976;0,06439
251,91601;8,39714;1886,47546;0,06493
253,31601;8,44358;1884,61412;0,06547
254,71601;8,49059;1883,76810;0,06601
256,11601;8,53731;1883,22291;0,06656
257,51601;8,58375;1882,67455;0,06710
258,91601;8,63133;1882,22639;0,06765
260,31601;8,67777;1880,94489;0,06819
261,71601;8,72364;1878,88313;0,06872
263,11601;8,77008;1878,07158;0,06926
264,51601;8,81651;1876,58314;0,06981
265,91601;8,86438;1877,55451;0,07036
267,31601;8,91110;1876,17261;0,07091
268,71601;8,95725;1875,53037;0,07145
270,11601;9,00398;1873,72547;0,07200
271,51601;9,04956;1872,09304;0,07255
272,91601;9,09771;1872,43763;0,07311
274,31601;9,14386;1871,51320;0,07365
275,71601;9,19059;1870,17210;0,07420
277,11601;9,23703;1869,78672;0,07475
278,51601;9,28261;1867,69981;0,07529
279,91601;9,33047;1867,44928;0,07586
281,31601;9,37663;1866,14264;0,07641
282,71601;9,42392;1866,11116;0,07698
284,11601;9,46979;1863,55747;0,07752
285,51601;9,51765;1865,36871;0,07809
286,91601;9,56352;1862,29479;0,07864
288,31601;9,61025;1861,83732;0,07920
289,71601;9,65668;1861,37985;0,07976
291,11601;9,70312;1858,61606;0,08031
292,51601;9,75156;1859,89141;0,08088
293,91601;9,79771;1858,22751;0,08143
295,31601;9,84415;1857,30942;0,08199
296,71601;9,89059;1856,01227;0,08255
298,11601;9,93703;1855,65818;0,08311
299,51601;9,98460;1854,95634;0,08368
300,91601;10,03133;1852,55297;0,08423
302,31601;10,07777;1852,39315;0,08479
303,71601;10,12421;1850,70727;0,08535
305,11601;10,17007;1850,19653;0,08591
306,51601;10,21680;1848,62670;0,08647
307,91601;10,26381;1848,67997;0,08704
309,31601;10,31053;1847,48936;0,08760
310,71601;10,35697;1846,10747;0,08816
312,11601;10,40284;1844,80716;0,08873
313,51601;10,45042;1844,77568;0,08930
314,91601;10,49657;1843,15257;0,08987
316,31602;10,54386;1843,78866;0,09044
317,71602;10,58945;1842,03088;0,09100
319,11602;10,63703;1841,73323;0,09158
320,51602;10,68375;1841,09714;0,09214
321,91602;10,73019;1839,32669;0,09270
323,31602;10,77720;1839,22648;0,09327
324,71602;10,82307;1836,75420;0,09383
326,11602;10,87178;1837,87905;0,09441
327,51602;10,91765;1835,81728;0,09497
328,91602;10,96438;1835,92066;0,09554
330,31602;11,01081;1834,79898;0,09610
331,71602;11,05697;1834,78333;0,09668
333,11602;11,10455;1832,83743;0,09725
334,51602;11,15099;1832,35481;0,09781
335,91602;11,19742;1830,96044;0,09839
337,31602;11,24358;1830,04234;0,09896
338,71602;11,29059;1829,88569;0,09954
340,11602;11,33731;1829,45635;0,10011
341,51602;11,38403;1828,71073;0,10069
342,91602;11,43047;1827,60768;0,10126
344,31602;11,47606;1824,97874;0,10182
345,71602;11,52420;1826,07230;0,10241
347,11602;11,57036;1825,39243;0,10298
348,51602;11,61708;1824,02004;0,10355
349,91602;11,66295;1822,24642;0,10412
351,31602;11,70882;1821,23743;0,10469
352,71602;11,75697;1821,99888;0,10528
354,11602;11,80312;1821,19049;0,10585
355,51602;11,85013;1820,26606;0,10643
356,91602;11,89685;1819,99970;0,10700
358,31602;11,94329;1818,69008;0,10757
359,71602;11,99058;1818,72137;0,10816
361,11602;12,03702;1817,47731;0,10874
362,51602;12,08346;1817,74050;0,10932
363,29402;12,10996;1018,32850;0,12767