Folder: DeSiPro_OmniUAV_2024/02_Appendices/Appendix_C_Experimental_Data/C_1_Materials_Tests/C_1_1_Tensile_tests/C_1_1_2_Quanton Iron (part 3)

File: Specimen_RawData_9.csv
Text Inputs : Specimen label;"1"
Dimension : Length;50,00000;mm
Dimension : Final length;100,00000;mm
Test : Rate 1;4,00000;mm/min
General : Unique Identifier;"{8C04EC63-1443-4F43-8EE8-A9AF71F487A0}"

Time;Extension;Load;Strain 1
(sec);(mm);(N);(mm/mm)
0,00000;0,00000;10,82239;0,00018
1,20000;0,07994;56,71140;0,00066
2,40000;0,16000;60,67519;0,00075
3,60000;0,24000;63,91201;0,00080
4,80000;0,32003;64,08435;0,00083
6,00000;0,40006;67,00784;0,00089
7,20000;0,47994;83,56799;0,00110
8,40000;0,56000;129,08101;0,00164
9,60000;0,64000;175,85991;0,00222
10,80000;0,71997;219,08239;0,00279
12,00000;0,80003;259,96419;0,00335
13,20000;0,88000;300,51072;0,00391
14,40000;0,96003;339,13332;0,00446
15,60000;1,03997;377,34858;0,00501
16,80000;1,12003;414,19766;0,00556
18,00000;1,19997;450,70834;0,00609
19,20000;1,27997;484,59945;0,00662
20,40000;1,36003;518,11771;0,00715
21,60000;1,44000;550,28857;0,00766
22,80000;1,52003;582,57543;0,00817
24,00000;1,60000;612,48397;0,00867
25,20000;1,67997;641,95697;0,00917
26,40000;1,76000;670,87845;0,00966
27,60000;1,83997;700,26061;0,01015
28,80000;1,92000;726,82579;0,01064
30,00000;2,00000;754,74773;0,01113
31,20000;2,08000;780,24757;0,01162
32,40000;2,16000;805,93219;0,01211
33,60000;2,24003;831,28475;0,01258
34,80000;2,32003;855,16144;0,01305
36,00000;2,40003;878,52739;0,01351
37,20000;2,47997;901,27606;0,01398
38,40000;2,56000;924,70786;0,01445
39,60000;2,63997;946,43813;0,01492
40,80000;2,72003;968,16216;0,01539
42,00000;2,80000;990,77616;0,01587
43,20000;2,87997;1012,80725;0,01635
44,40000;2,96005;1033,51604;0,01684
45,60000;3,03997;1055,73209;0,01733
46,80000;3,12002;1076,99232;0,01783
48,00000;3,20000;1096,86768;0,01832
49,20000;3,27997;1118,01205;0,01883
50,40000;3,36002;1137,82780;0,01934
51,60000;3,44000;1158,58363;0,01987
52,80000;3,52000;1178,21768;0,02039
54,00000;3,60000;1196,17218;0,02091
55,20000;3,68000;1215,82504;0,02144
56,40000;3,76000;1234,68516;0,02198
57,60000;3,83997;1252,79315;0,02252
58,80000;3,92002;1270,07719;0,02307
60,00000;4,00000;1287,30787;0,02362
61,20000;4,07997;1304,15000;0,02418
62,40000;4,16002;1321,38077;0,02475
63,60000;4,24000;1335,74121;0,02532
64,80000;4,32002;1351,85961;0,02590
66,00000;4,40005;1366,40808;0,02648
67,20000;4,47997;1380,58998;0,02708
68,40000;4,55999;1394,75930;0,02768
69,60000;4,63999;1408,29887;0,02828
70,80000;4,71999;1420,86074;0,02890
72,00000;4,80002;1433,38814;0,02952
73,20000;4,87999;1444,72178;0,03015
74,40000;4,96005;1455,90184;0,03078
75,60000;5,03997;1466,65266;0,03143
76,80000;5,12002;1476,11247;0,03208
78,00000;5,19999;1484,81084;0,03273
79,20000;5,27997;1494,16411;0,03340
80,40000;5,36002;1501,90992;0,03407
81,60000;5,43999;1509,99418;0,03475
82,80000;5,52002;1516,58691;0,03543
84,00000;5,59999;1523,07618;0,03613
85,20000;5,67999;1527,80451;0,03683
86,40000;5,76002;1533,03109;0,03753
87,60000;5,83999;1538,00072;0,03825
88,80000;5,92002;1541,82352;0,03897
90,00000;5,99996;1545,26709;0,03970
91,20000;6,07996;1548,88621;0,04043
92,40000;6,15999;1551,06084;0,04117
93,60000;6,23999;1553,14142;0,04192
94,80000;6,32002;1553,80573;0,04267
96,00000;6,40005;1555,08099;0,04342
97,20000;6,47994;1555,75471;0,04418
98,40000;6,55999;1556,08682;0,04495
99,60000;6,63996;1556,57567;0,04572
100,80000;6,71999;1555,73273;0,04649
102,00000;6,80002;1554,67363;0,04727
103,20000;6,87999;1553,55195;0,04805
104,40000;6,96005;1551,60921;0,04884
105,60001;7,03996;1550,40277;0,04962
106,80001;7,12002;1548,03395;0,05042
107,90601;7,19352;1545,97843;0,05115
109,10601;7,27358;1543,86023;0,05195
110,30601;7,35361;1541,53835;0,05275
111,50601;7,43364;1537,71555;0,05355
112,70601;7,51361;1534,53518;0,05435
113,90601;7,59358;1531,61790;0,05516
115,10601;7,67364;1527,58211;0,05596
116,30601;7,75358;1524,46749;0,05676
117,50601;7,83364;1520,15584;0,05757
118,70601;7,91361;1516,52424;0,05838
119,90601;7,99352;1512,50400;0,05919
121,10601;8,07361;1508,78783;0,06000
122,30601;8,15358;1504,41984;0,06081
123,50601;8,23364;1499,90143;0,06163
124,70601;8,31361;1497,25368;0,06244
125,90601;8,39361;1492,54100;0,06326
127,10601;8,47358;1488,65553;0,06407
128,30601;8,55358;1484,97690;0,06488
129,50601;8,63361;1480,49295;0,06570
130,70601;8,71358;1476,16882;0,06651
131,90601;8,79358;1472,40562;0,06732
133,10601;8,87364;1467,93732;0,06813
134,30601;8,95361;1464,06442;0,06894
135,50601;9,03364;1460,49857;0,06975
136,70601;9,11361;1456,11800;0,07056
137,90601;9,19352;1451,83150;0,07137
139,10601;9,27358;1448,15287;0,07219
140,30601;9,35361;1444,27996;0,07300
141,50601;9,43364;1440,60757;0,07381
142,70601;9,51361;1437,21411;0,07462
143,90601;9,59355;1433,21892;0,07542
145,10601;9,67364;1429,10480;0,07623
146,30601;9,75358;1426,27219;0,07704
147,50601;9,83364;1422,50583;0,07785
148,70601;9,91361;1419,71707;0,07865
149,90601;9,99352;1416,02587;0,07945
151,10601;10,07361;1412,66054;0,08025
152,30601;10,15358;1408,76574;0,08105
153,50601;10,23364;1404,96176;0,08185
154,70601;10,31361;1402,84980;0,08265
155,90601;10,39363;1399,08027;0,08345
157,10601;10,47358;1395,87484;0,08425
158,30601;10,55358;1393,41820;0,08505
159,50601;10,63363;1390,25655;0,08585
160,70601;10,71358;1386,91003;0,08665
161,90601;10,79358;1384,22782;0,08744
163,10601;10,87363;1381,24796;0,08824
164,30601;10,95361;1378,94489;0,08904
165,50601;11,03363;1376,07781;0,08983
166,70601;11,11361;1373,22638;0,09063
167,90601;11,19352;1369,94887;0,09142
169,10601;11,27361;1368,48865;0,09221
170,30601;11,35361;1365,62157;0,09300
171,50601;11,43361;1362,61666;0,09379
172,70601;11,51361;1360,85562;0,09458
173,90601;11,59358;1358,01677;0,09536
175,10601;11,67363;1356,93885;0,09616
176,30601;11,75360;1354,20654;0,09694
177,50601;11,83366;1350,49652;0,09773
178,70601;11,91360;1348,61646;0,09852
179,90601;11,99352;1346,92444;0,09930
181,10601;12,07360;1344,72474;0,10009
182,30601;12,15358;1341,80123;0,10087
183,50601;12,23363;1339,72066;0,10165
184,70601;12,31363;1337,30797;0,10244
185,90601;12,39360;1335,58139;0,10322
187,10601;12,47358;1334,16513;0,10400
188,30601;12,55357;1331,37014;0,10478
189,50601;12,63360;1329,87546;0,10556
190,70601;12,71360;1327,39376;0,10634
191,90601;12,79358;1325,68292;0,10712
193,10601;12,87363;1323,78405;0,10789
194,30601;12,95360;1321,89151;0,10867
195,50601;13,03363;1319,88293;0,10945
196,70601;13,11363;1317,90265;0,11022
197,90601;13,19355;1316,01002;0,11099
199,10601;13,27360;1314,12996;0,11177
200,30601;13,35363;1313,24949;0,11255
201,50601;13,43363;1311,84570;0,11332
202,70601;13,51360;1309,89989;0,11409
203,90601;13,59355;1308,42719;0,11486
205,10601;13,67363;1305,95490;0,11563
206,30601;13,75360;1304,15941;0,11640
207,50601;13,83366;1303,14110;0,11717
208,70601;13,91360;1301,94100;0,11793
209,90601;13,99352;1299,99509;0,11870
211,10601;14,07360;1298,85767;0,11947
212,30601;14,15357;1297,14999;0,12023
213,50601;14,23363;1296,42617;0,12100
214,70601;14,31363;1294,62751;0,12176
215,90601;14,39360;1293,36789;0,12253
217,10601;14,47360;1291,79182;0,12329
218,30601;14,55357;1289,84284;0,12405
219,50601;14,63363;1288,72106;0,12481
220,70601;14,71360;1287,70266;0,12557
221,90601;14,79355;1286,42423;0,12633
223,10601;14,87363;1285,44662;0,12709
224,30601;14,95363;1283,25317;0,12785
225,50601;15,03363;1282,58262;0,12860
226,70601;15,11363;1280,98466;0,12936
227,90601;15,19354;1279,80961;0,13011
229,10601;15,27360;1278,69407;0,13087
230,30601;15,35360;1277,78538;0,13162
231,50601;15,43363;1275,82699;0,13237
232,70601;15,51360;1274,97474;0,13312
233,90601;15,59354;1274,25399;0,13387
235,10601;15,67363;1273,14795;0,13462
236,30601;15,75360;1271,88824;0,13537
237,50601;15,83363;1270,55030;0,13612
238,70601;15,91363;1269,78885;0,13686
239,90601;15,99351;1268,55746;0,13760
241,10601;16,07360;1267,46390;0,13834
242,30601;16,15360;1266,77137;0,13909
243,50601;16,23363;1265,36451;0,13982
244,70601;16,31363;1263,73507;0,14056
245,90601;16,39360;1263,50634;0,14129
247,10601;16,47360;1261,89888;0,14203
248,30601;16,55360;1260,52964;0,14276
249,50601;16,63363;1259,75255;0,14349
250,70601;16,71360;1258,27668;0,14422
251,90601;16,79357;1256,91993;0,14495
253,10601;16,87363;1256,22433;0,14568
254,30601;16,95363;1255,57566;0,14640
255,50601;17,03363;1253,92433;0,14713
256,70601;17,11360;1253,55776;0,14784
257,90601;17,19354;1252,18220;0,14856
259,10601;17,27360;1251,45204;0,14928
260,30601;17,35363;1250,82228;0,15000
261,50601;17,43363;1248,97668;0,15071
262,70601;17,51360;1248,13691;0,15142
263,90601;17,59357;1246,03128;0,15212
265,10601;17,67365;1245,34192;0,15282
266,30601;17,75360;1243,81278;0,15352
267,50601;17,83365;1243,49315;0,15422
268,70601;17,91360;1241,95470;0,15492
269,90601;17,99354;1241,26840;0,15561
271,10601;18,07363;1239,60776;0,15630
272,30601;18,15354;1238,22587;0,15698
273,50601;18,23362;1237,16369;0,15767
274,70601;18,31363;1235,60317;0,15834
275,90601;18,39362;1234,77913;0,15902
277,10601;18,47360;1233,20930;0,15969
278,30601;18,55360;1231,26339;0,16036
279,50601;18,63362;1230,42362;0,16101
280,70601;18,71360;1228,41196;0,16167
281,90601;18,79354;1226,74499;0,16232
283,10601;18,87362;1225,29734;0,16296
284,30601;18,95362;1224,67382;0,16361
285,50601;19,03360;1222,06677;0,16424
286,70601;19,11362;1221,44017;0,16488
287,90601;19,19354;1219,17157;0,16550
289,10601;19,27360;1217,21318;0,16612
290,30601;19,35362;1215,48036;0,16673
291,50601;19,43363;1214,43067;0,16733
292,70601;19,51360;1212,20592;0,16793
293,90601;19,59357;1209,92484;0,16852
295,10601;19,67362;1207,20807;0,16910
296,30601;19,75357;1205,38129;0,16967
297,50601;19,83365;1202,38578;0,17022
298,70601;19,91362;1199,91666;0,17077
299,90601;19,99351;1197,59785;0,17131
301,10601;20,07359;1195,31993;0,17183
302,30601;20,15357;1191,68200;0,17234
303,50601;20,23362;1188,63629;0,17283
304,70601;20,31359;1184,10848;0,17330
305,90601;20,39362;1180,07269;0,17375
307,10601;20,47359;1175,27535;0,17417
308,30601;20,55357;1170,31513;0,17456
309,50601;20,63362;1164,53711;0,17490
310,70601;20,71359;1157,05766;0,17519
311,90601;20,79357;1146,32882;0,17534
313,10601;20,87362;1125,23139;0,17517
314,30601;20,95362;1096,48220;0,17477
315,50601;21,03362;1059,00336;0,17405
316,70602;21,11362;1006,54354;0,17290
317,90602;21,19357;931,49487;0,17114
319,10602;21,27359;814,55233;0,16842
320,30602;21,35362;482,49378;0,16186
321,36402;21,42411;-32,53795;0,15028
322,56402;21,50411;-31,74833;0,14633
322,59002;21,50584;-32,19642;0,14626