Folder: DeSiPro_OmniUAV_2024/02_Appendices/Appendix_C_Experimental_Data/C_1_Materials_Tests/C_1_1_Tensile_tests/C_1_1_2_Quanton Iron (part 2)

File: Specimen_RawData_6.csv
Text Inputs : Specimen label;"1"
Dimension : Length;50,00000;mm
Dimension : Final length;100,00000;mm
Test : Rate 1;4,00000;mm/min
General : Unique Identifier;"{3007F469-4EBD-4F99-85B1-A18A16B31A65}"

Time;Extension;Load;Strain 1
(sec);(mm);(N);(mm/mm)
0,00000;0,00000;6,21089;0,00027
2,00000;0,13333;87,02819;0,00122
4,00000;0,26667;104,74145;0,00152
6,00000;0,40006;105,69087;0,00160
8,00000;0,53336;109,20345;0,00170
10,00000;0,66667;171,74035;0,00252
12,00000;0,80000;239,94250;0,00346
14,00000;0,93333;304,53179;0,00439
16,00000;1,06667;365,21999;0,00532
18,00000;1,20000;422,88438;0,00622
20,00000;1,33333;475,95524;0,00708
22,00000;1,46667;527,84476;0,00794
24,00000;1,60003;580,39231;0,00884
26,00000;1,73336;628,07989;0,00968
28,00000;1,86664;670,80730;0,01049
30,00000;1,99997;709,89053;0,01126
32,00000;2,13333;750,88511;0,01203
34,00000;2,26666;788,64917;0,01282
36,00000;2,40005;825,68619;0,01359
38,00000;2,53336;862,02454;0,01437
40,00000;2,66669;897,88353;0,01516
42,00000;2,80003;932,87444;0,01596
44,00000;2,93333;968,62996;0,01678
46,00000;3,06666;1002,51175;0,01761
48,00000;3,19997;1037,66872;0,01847
50,00000;3,33333;1071,48783;0,01935
52,00000;3,46666;1105,21596;0,02025
54,00000;3,60000;1136,11156;0,02117
56,00000;3,73336;1168,30124;0,02211
58,00000;3,86663;1198,25369;0,02306
60,00000;4,00000;1227,65144;0,02404
62,00000;4,13330;1256,03406;0,02505
64,00000;4,26666;1283,62700;0,02608
66,00000;4,40005;1309,80052;0,02713
68,00000;4,53336;1334,92434;0,02822
70,00000;4,66666;1358,24326;0,02934
72,00000;4,79999;1380,89163;0,03050
74,00000;4,93336;1401,39051;0,03168
76,00000;5,06669;1420,84286;0,03290
78,00000;5,19999;1437,95451;0,03416
80,00000;5,33333;1454,77159;0,03546
82,00000;5,46666;1469,21976;0,03681
84,00000;5,59999;1482,29562;0,03819
86,00000;5,73336;1493,95820;0,03961
88,00000;5,86663;1503,81597;0,04109
90,00000;5,99996;1512,00043;0,04260
92,00000;6,13330;1519,84338;0,04416
94,00000;6,26666;1524,60625;0,04577
96,00000;6,40002;1529,26249;0,04742
98,00000;6,53335;1531,86955;0,04911
99,94000;6,66264;1533,58663;0,05080
101,85200;6,78999;1534,44204;0,05250
103,85200;6,92333;1533,92190;0,05432
105,85201;7,05672;1532,36771;0,05619
107,85201;7,18996;1529,51321;0,05809
109,85201;7,32332;1527,80227;0,06004
111,85201;7,45671;1523,54399;0,06202
113,85201;7,58999;1520,26331;0,06404
115,85201;7,72332;1515,42844;0,06608
117,85201;7,85669;1510,19245;0,06816
119,85201;7,98996;1504,86566;0,07026
121,85201;8,12335;1498,96229;0,07240
123,85201;8,25671;1492,37271;0,07456
125,85201;8,39002;1487,45319;0,07674
127,85201;8,52335;1480,81975;0,07895
129,85201;8,65671;1474,77537;0,08118
131,85201;8,78999;1467,89439;0,08342
133,85201;8,92332;1462,07558;0,08567
135,85201;9,05668;1455,67711;0,08795
137,85201;9,18996;1448,78672;0,09023
139,85201;9,32332;1443,28754;0,09252
141,85201;9,45668;1437,29644;0,09484
143,85201;9,58999;1431,10482;0,09715
145,85201;9,72335;1425,81873;0,09948
147,85201;9,85668;1419,43907;0,10182
149,85201;9,98996;1412,85574;0,10416
151,85201;10,12335;1407,33151;0,10651
153,85201;10,25671;1401,85114;0,10886
155,85201;10,39002;1396,22977;0,11123
157,85201;10,52332;1391,58918;0,11360
159,85201;10,65665;1387,03315;0,11597
161,85201;10,78996;1381,69071;0,11835
163,85201;10,92332;1376,99684;0,12073
165,85201;11,05671;1372,37189;0,12312
167,85201;11,18999;1367,88795;0,12551
169,85201;11,32332;1362,96218;0,12789
171,85201;11,45671;1358,74143;0,13029
173,85201;11,58999;1355,13181;0,13268
175,85201;11,72332;1351,11781;0,13508
177,85201;11,85668;1346,78436;0,13748
179,85201;11,98996;1343,77619;0,13988
181,85201;12,12335;1339,44899;0,14228
183,85201;12,25671;1335,57292;0,14469
185,85201;12,39004;1332,58672;0,14710
187,85201;12,52335;1329,80430;0,14951
189,85201;12,65671;1325,58672;0,15192
191,85201;12,78999;1323,40901;0,15433
193,85201;12,92332;1320,73304;0,15674
195,85201;13,05668;1316,86954;0,15916
197,85201;13,18996;1313,80819;0,16157
199,85201;13,32332;1312,07220;0,16399
201,85201;13,45671;1308,57537;0,16641
203,85201;13,58998;1306,01218;0,16883
205,85201;13,72335;1303,61514;0,17124
207,85201;13,85668;1301,50635;0,17366
209,85201;13,98996;1298,56719;0,17607
211,85201;14,12332;1296,60564;0,17849
213,85201;14,25671;1294,18978;0,18092
215,85201;14,39001;1292,23447;0,18333
217,85201;14,52335;1290,33569;0,18575
219,85201;14,65671;1287,16147;0,18818
221,85201;14,78998;1285,93948;0,19060
223,85201;14,92332;1283,97169;0,19302
225,85201;15,05671;1281,53386;0,19544
227,85201;15,18995;1279,14622;0,19786
229,85201;15,32332;1278,03385;0,20028
231,85201;15,45671;1275,57097;0,20270
233,85201;15,58998;1274,77506;0,20512
235,85201;15,72331;1273,70032;0,20754
237,85201;15,85668;1272,18999;0,20997
239,85201;15,98995;1269,76781;0,21238
241,85201;16,12334;1269,65819;0,21481
243,85201;16,25673;1267,64337;0,21722
245,85201;16,39004;1266,10175;0,21964
247,85201;16,52334;1265,20246;0,22205
249,85201;16,65668;1263,98355;0,22447
251,85201;16,78998;1263,29735;0,22688
253,85201;16,92334;1261,79643;0,22930
255,85201;17,05668;1260,82823;0,23170
257,85201;17,18998;1259,47455;0,23411
259,85201;17,32331;1258,85727;0,23653
261,85201;17,45670;1256,94899;0,23894
263,85201;17,58998;1257,88907;0,24134
265,85201;17,72334;1255,90870;0,24376
267,85201;17,85665;1255,31340;0,24618
269,85201;17,98995;1254,02240;0,24858
271,85201;18,12334;1253,61504;0,25099
273,85201;18,25673;1252,17680;0,25341
275,85201;18,39001;1252,29275;0,25582
277,85201;18,52334;1250,82945;0,25823
279,85201;18,65670;1250,94848;0,26065
281,85201;18,78998;1250,20584;0,26308
283,85201;18,92331;1249,15615;0,26550
285,85201;19,05670;1249,09980;0,26785
287,85201;19,18998;1248,97128;0,27032
289,85201;19,32331;1248,16606;0,27274
291,85201;19,45670;1247,43907;0,27515
293,85201;19,58998;1247,64899;0,27757
295,85201;19,72334;1246,79673;0,28002
297,85201;19,85667;1246,18569;0,28247
299,85201;19,98998;1246,75911;0,28488
301,85201;20,12334;1245,52138;0,28730
303,85201;20,25673;1246,22332;0,28969
305,85201;20,39003;1245,48376;0,29205
307,85201;20,52334;1245,61228;0,29443
309,85201;20,65670;1244,80696;0,29673
311,85201;20,78998;1245,21749;0,29910
313,85201;20,92331;1245,04510;0,30159
315,85202;21,05670;1244,53437;0,30403
317,85202;21,18998;1243,94838;0,30640
319,85202;21,32334;1244,24919;0,30878
321,85202;21,45670;1242,62925;0,31116
323,85202;21,58998;1242,71698;0,31350
325,85202;21,72331;1248,91177;0,31273
327,85202;21,85667;1245,97577;0,31326
329,85202;21,98995;1244,08631;0,31336
331,85202;22,12336;1244,49367;0,31336
333,85202;22,25673;1243,97660;0,31334
335,85202;22,39003;1243,57864;0,31332
337,85202;22,52336;1244,11136;0,31332
339,85202;22,65670;1244,10512;0,31325
341,85202;22,78997;1245,27700;0,31315
343,85202;22,92331;1244,68794;0,31316
345,85202;23,05670;1243,90768;0,31321
347,85202;23,18997;1243,36872;0,31326
349,85202;23,32331;1244,25860;0,31327
351,85202;23,45673;1244,26177;0,31327
353,85202;23,58997;1244,36831;0,31318
355,85202;23,72331;1245,03570;0,31308
357,85202;23,85667;1244,84776;0,31311
359,85202;23,98997;1244,24295;0,31321
361,85202;24,12336;1243,52854;0,31327
363,85202;24,25672;1244,09879;0,31320
365,85202;24,39003;1246,08232;0,31301
367,85202;24,52336;1245,55901;0,31309
369,85202;24,65670;1244,94797;0,31318
371,85202;24,78997;1245,01688;0,31322
373,85202;24,92330;1246,15123;0,31302
375,85202;25,05669;1246,26402;0,31302
377,85202;25,18997;1246,22015;0,31314
379,85202;25,32331;1245,52455;0,31319
381,85202;25,45672;1247,17588;0,31304
383,85202;25,58997;1247,61770;0,31301
385,85202;25,72333;1247,91851;0,31309
387,85202;25,85667;1247,52056;0,31314
389,85202;25,98994;1248,41984;0,31299
391,85202;26,12333;1248,08764;0,31302
393,85202;26,25672;1248,02506;0,31310
395,85202;26,39003;1248,02813;0,31303
397,85202;26,52336;1248,21300;0,31300
399,85202;26,65666;1249,04653;0,31304
401,85202;26,79000;1249,26586;0,31304
403,85202;26,92333;1250,16514;0,31297
405,85202;27,05669;1249,91760;0,31302
407,85202;27,18997;1249,64816;0,31308
409,85202;27,32333;1250,70410;0,31296
411,85202;27,45672;1250,47844;0,31298
413,85202;27,59000;1251,22424;0,31308
415,85202;27,72333;1251,62844;0,31292
417,85202;27,85666;1251,48427;0,31300
419,85202;27,98997;1251,57833;0,31305
421,85202;28,12336;1253,25778;0,31289
423,85202;28,25672;1252,39929;0,31303
425,85202;28,39000;1252,97895;0,31302
427,85202;28,52336;1253,74040;0,31290
429,85202;28,65672;1253,17639;0,31309
431,85202;28,79000;1255,17547;0,31290
433,85202;28,92333;1254,71484;0,31298
435,85202;29,05669;1253,77169;0,31309
437,85202;29,18997;1256,43825;0,31289
439,85202;29,32333;1254,71801;0,31309
441,85202;29,45672;1256,37250;0,31293
443,85202;29,58997;1256,80175;0,31302
445,85202;29,72333;1255,38856;0,31342
447,85202;29,85666;1253,10430;0,02838
449,85202;29,98997;1252,61545;0,01657
451,85202;30,12336;1252,68437;0,02053
453,85202;30,25675;1253,06360;0,02102
455,85202;30,39002;1253,20144;0,02101
457,85202;30,52335;1253,36749;0,01636
459,85202;30,65669;1253,94408;0,00152
461,85202;30,78999;1254,19470;0,00228
463,85202;30,92333;1255,70819;0,00227
465,85202;31,05672;1254,36708;0,00226
467,85202;31,18996;1254,81514;0,00226
469,85202;31,32333;1255,35727;0,00225
471,85202;31,45672;1255,29142;0,00225
473,85202;31,58999;1255,71126;0,00225
475,85202;31,72332;1256,87690;0,00224
477,85202;31,85666;1255,39796;0,00224
479,85202;31,98996;1257,22792;0,00224
481,85202;32,12335;1257,53498;0,00224
483,85202;32,25671;1256,76412;0,00223
485,85202;32,39002;1257,17148;0,00223
487,85202;32,52335;1257,35635;0,00223
489,85202;32,65669;1257,68846;0,00223
491,85202;32,78999;1259,08284;0,00222
493,85202;32,92332;1259,12363;0,00222
495,85202;33,05668;1258,19920;0,00222
497,85202;33,18996;1258,62854;0,00222
499,85202;33,32332;1258,90430;0,00222
501,85202;33,45671;1258,86984;0,00221
503,85202;33,58999;1258,77270;0,00221
505,85202;33,72332;1258,34960;0,00221
507,85202;33,85666;1255,64551;0,00221
509,85202;33,98996;1251,78825;0,00221
511,85202;34,12335;1244,67853;0,00221
513,85202;34,25671;1232,89367;0,00221
515,31402;34,35415;659,63976;0,00220

File: Specimen_RawData_7.csv
Text Inputs : Specimen label;"1"
Dimension : Length;50,00000;mm
Dimension : Final length;100,00000;mm
Test : Rate 1;4,00000;mm/min
General : Unique Identifier;"{A4873304-788C-4C87-8BCD-B24231115660}"

Time;Extension;Load;Strain 1
(sec);(mm);(N);(mm/mm)
0,00000;0,00000;3,56425;0,00007
2,00000;0,13333;79,28348;0,00036
4,00000;0,26667;97,36961;0,00089
6,00000;0,40006;100,34638;0,00098
8,00000;0,53336;115,05467;0,00116
10,00000;0,66667;163,68231;0,00173
12,00000;0,80000;218,08171;0,00244
14,00000;0,93333;270,69191;0,00313
16,00000;1,06669;320,46952;0,00383
18,00000;1,19997;372,68805;0,00461
20,00000;1,33333;417,98796;0,00533
22,00000;1,46667;460,12630;0,00602
24,00000;1,60000;499,81112;0,00670
26,00000;1,73333;537,08008;0,00735
28,00000;1,86664;573,80381;0,00800
30,00000;1,99997;609,77871;0,00866
32,00000;2,13333;646,21102;0,00932
34,00000;2,26669;681,38684;0,00999
36,00000;2,40005;716,67549;0,01068
38,00000;2,53336;752,53756;0,01137
40,00000;2,66666;787,34048;0,01208
42,00000;2,80000;822,42237;0,01280
44,00000;2,93333;856,51083;0,01353
46,00000;3,06666;891,14150;0,01427
48,00000;3,19997;925,28956;0,01504
50,00000;3,33333;959,82933;0,01583
52,00000;3,46666;993,51993;0,01664
54,00000;3,60000;1027,74631;0,01747
56,00000;3,73336;1061,24580;0,01832
58,00000;3,86663;1094,37229;0,01920
60,00000;4,00000;1126,27689;0,02009
62,00000;4,13330;1157,14734;0,02101
64,00000;4,26663;1188,04611;0,02196
66,00000;4,40005;1217,69141;0,02293
68,00000;4,53336;1246,45624;0,02392
70,00000;4,66666;1272,65174;0,02494
72,00000;4,79999;1300,89642;0,02599
74,00000;4,93333;1324,76687;0,02706
76,00000;5,06666;1348,42424;0,02817
78,00000;5,19997;1370,78436;0,02931
80,00000;5,33333;1391,26442;0,03049
82,00000;5,46666;1410,74490;0,03170
84,00000;5,59999;1428,64622;0,03296
86,00000;5,73336;1444,85226;0,03426
88,00000;5,86663;1459,31924;0,03560
90,00000;5,99996;1472,72404;0,03698
92,00000;6,13333;1483,90103;0,03842
94,00000;6,26666;1493,51433;0,03989
96,00000;6,40005;1501,68007;0,04141
98,00000;6,53335;1509,07813;0,04298
100,00000;6,66666;1513,98191;0,04460
102,00000;6,79999;1517,42240;0,04626
104,00000;6,93333;1521,08222;0,04797
106,00001;7,06669;1522,61443;0,04972
107,90601;7,19352;1523,25369;0,05144
109,90601;7,32686;1522,26044;0,05328
111,90601;7,46025;1521,44888;0,05516
113,90601;7,59355;1518,54418;0,05708
115,90601;7,72691;1515,68335;0,05904
117,90601;7,86022;1511,60359;0,06104
119,90601;7,99349;1507,48314;0,06307
121,90601;8,12688;1502,78620;0,06513
123,90601;8,26025;1496,72609;0,06723
125,90601;8,39361;1492,07609;0,06935
127,90601;8,52691;1486,13825;0,07150
129,90601;8,66022;1479,73979;0,07367
131,90601;8,79355;1473,25676;0,07586
133,90601;8,92688;1466,91781;0,07807
135,90601;9,06028;1460,79203;0,08031
137,90601;9,19352;1454,23058;0,08255
139,90601;9,32686;1447,40604;0,08481
141,90601;9,46022;1441,06708;0,08710
143,90601;9,59355;1434,74694;0,08938
145,90601;9,72694;1428,84050;0,09169
147,90601;9,86022;1422,68958;0,09400
149,90601;9,99352;1416,43211;0,09632
151,90601;10,12688;1410,50052;0,09865
153,90601;10,26025;1404,28068;0,10098
155,90601;10,39363;1398,88180;0,10333
157,90601;10,52688;1393,36064;0,10568
159,90601;10,66024;1387,70798;0,10803
161,90601;10,79355;1382,76974;0,11039
163,90601;10,92688;1377,22036;0,11277
165,90601;11,06027;1372,56412;0,11514
167,90601;11,19352;1367,30308;0,11751
169,90601;11,32685;1362,11729;0,11989
171,90601;11,46024;1358,46371;0,12228
173,90601;11,59358;1354,41534;0,12465
175,90601;11,72691;1348,90052;0,12704
177,90601;11,86021;1345,60410;0,12943
179,90601;11,99352;1341,09827;0,13182
181,90601;12,12688;1336,73027;0,13422
183,90601;12,26027;1333,33681;0,13661
185,90601;12,39360;1330,01218;0,13902
187,90601;12,52691;1326,30225;0,14141
189,90601;12,66021;1322,61422;0,14381
191,90601;12,79352;1319,01391;0,14621
193,90601;12,92688;1316,01207;0,14861
195,90601;13,06027;1312,47127;0,15102
197,90601;13,19352;1309,04336;0,15343
199,90601;13,32688;1307,16013;0,15584
201,90601;13,46024;1304,27424;0,15825
203,90601;13,59355;1300,55174;0,16066
205,90601;13,72694;1298,12332;0,16308
207,90601;13,86021;1295,40041;0,16549
209,90601;13,99352;1291,95675;0,16790
211,90601;14,12688;1289,81974;0,17031
213,90601;14,26027;1286,93702;0,17273
215,90601;14,39363;1285,18539;0,17514
217,90601;14,52691;1282,80092;0,17756
219,90601;14,66021;1280,01217;0,17998
221,90601;14,79355;1278,36084;0,18240
223,90601;14,92685;1276,41186;0,18482
225,90601;15,06024;1273,63876;0,18723
227,90601;15,19354;1271,65839;0,18965
229,90601;15,32688;1269,52771;0,19207
231,90601;15,46027;1268,48109;0,19448
233,90601;15,59357;1265,93988;0,19690
235,90601;15,72690;1265,47301;0,19932
237,90601;15,86024;1263,11984;0,20175
239,90601;15,99351;1261,50930;0,20416
241,90601;16,12690;1260,25276;0,20658
243,90601;16,26024;1258,77382;0,20900
245,90601;16,39360;1257,65204;0,21141
247,90601;16,52693;1255,90665;0,21383
249,90601;16,66024;1253,67260;0,21625
251,90601;16,79357;1252,70747;0,21867
253,90601;16,92690;1251,81759;0,22108
255,90601;17,06026;1250,43886;0,22350
257,90601;17,19351;1249,97199;0,22592
259,90601;17,32687;1248,27996;0,22834
261,90601;17,46024;1247,11432;0,23075
263,90601;17,59357;1246,75082;0,23315
265,90601;17,72690;1245,67915;0,23556
267,90601;17,86024;1245,35961;0,23797
269,90601;17,99351;1243,59857;0,24037
271,90601;18,12687;1243,13170;0,24278
273,90601;18,26026;1242,84653;0,24521
275,90601;18,39362;1241,69039;0,24763
277,90601;18,52693;1241,01983;0,25005
279,90601;18,66023;1240,44633;0,25246
281,90601;18,79357;1239,99827;0,25487
283,90601;18,92690;1239,22750;0,25727
285,90601;19,06026;1238,74806;0,25968
287,90601;19,19351;1238,31248;0,26212
289,90601;19,32687;1237,85501;0,26455
291,90601;19,46024;1237,85818;0,26690
293,90601;19,59357;1237,07484;0,26935
295,90601;19,72693;1236,93692;0,27180
297,90601;19,86023;1237,13119;0,27422
299,90601;19,99351;1236,53589;0,27664
301,90601;20,12690;1236,61105;0,27908
303,90601;20,26026;1236,31340;0,28150
305,90601;20,39362;1235,94673;0,28391
307,90601;20,52693;1235,81830;0,28629
309,90601;20,66023;1235,29499;0,28871
311,90601;20,79354;1235,09448;0,29112
313,90601;20,92690;1235,55819;0,29346
315,90602;21,06026;1235,40154;0,29586
317,90602;21,19351;1235,35143;0,29828
319,90602;21,32687;1234,35501;0,30066
321,90602;21,46023;1234,45522;0,30304
323,90602;21,59357;1234,22965;0,30538
325,90602;21,72693;1233,60297;0,30778
327,90602;21,86020;1233,76595;0,31018
329,90602;21,99351;1233,78467;0,31255
331,90602;22,12690;1239,91370;0,31212
333,90602;22,26026;1243,53282;0,31176
335,90602;22,39362;1238,25297;0,31262
337,90602;22,52692;1238,05245;0,31263
339,90602;22,66020;1238,66657;0,31259
341,90602;22,79354;1238,53497;0,31258
343,90602;22,92687;1238,77628;0,31253
345,90602;23,06026;1239,02382;0,31251
347,90602;23,19353;1238,76687;0,31250
349,90602;23,32687;1239,15542;0,31248
351,90602;23,46026;1239,76953;0,31242
353,90602;23,59353;1239,31523;0,31248
355,90602;23,72689;1239,70686;0,31244
357,90602;23,86023;1240,59366;0,31242
359,90602;23,99353;1240,76596;0,31240
361,90602;24,12689;1241,75297;0,31236
363,90602;24,26026;1240,82556;0,31238
365,90602;24,39362;1241,69970;0,31234
367,90602;24,52692;1241,94100;0,31235
369,90602;24,66023;1242,38906;0,31233
371,90602;24,79356;1243,10665;0,31234
373,90602;24,92689;1243,05654;0,31236
375,90602;25,06026;1244,60757;0,31229
377,90602;25,19353;1244,32556;0,31238
379,90602;25,32686;1244,72035;0,31243
381,90602;25,46025;1244,92720;0,31244
383,90602;25,59356;1245,61656;0,31238
385,90602;25,72692;1246,92004;0,31231
387,90602;25,86023;1247,29294;0,31240
389,90602;25,99353;1248,03241;0,31233
391,90602;26,12689;1248,80318;0,31253
393,90602;26,26025;1243,37301;0,12653
395,90602;26,39362;1243,83671;0,08013
397,90602;26,52692;1244,10624;0,06807
399,90602;26,66022;1244,50726;0,06649
401,90602;26,79356;1245,44734;0,02375
403,90602;26,92689;1245,36902;0,00116
405,90602;27,06025;1246,45317;0,00093
407,90602;27,19353;1245,89857;0,00079
409,90602;27,32689;1247,59376;0,00078
411,90602;27,46025;1247,45267;0,00078
413,90602;27,59356;1249,58968;0,00078
415,90602;27,72692;1249,58027;0,00077
417,90602;27,86023;1249,52076;0,00077
419,90602;27,99350;1250,31043;0,00077
421,90602;28,12692;1251,09693;0,00076
423,90602;28,26025;1251,53866;0,00076
425,90602;28,39361;1253,24959;0,00076
427,90602;28,52692;1254,13947;0,00076
429,90602;28,66022;1254,37444;0,00076
431,90602;28,79356;1255,47741;0,00076
433,90602;28,92689;1255,97566;0,00075
435,90602;29,06025;1256,46135;0,00075
437,90602;29,19353;1258,31002;0,00075
439,90602;29,32686;1258,86779;0,00075
441,90602;29,46025;1258,82700;0,00075
443,90602;29,59356;1260,69142;0,00074
445,90602;29,72689;1260,77915;0,00074
447,90602;29,86022;1260,99847;0,00074
449,90602;29,99350;1261,96677;0,00074
451,90602;30,12692;1263,38303;0,00074
453,90602;30,26025;1264,52986;0,00074
455,90602;30,39361;1264,31677;0,00074
457,90602;30,52692;1264,86514;0,00074
459,90602;30,66022;1265,47618;0,00074
461,90602;30,79353;1265,71748;0,00074
463,90602;30,92686;1267,03978;0,00073
465,90602;31,06028;1267,66646;0,00073
467,90602;31,19353;1267,55992;0,00073
469,90602;31,32689;1269,00440;0,00073
471,90602;31,46025;1269,07649;0,00073
473,90602;31,59355;1269,83793;0,00073
475,90602;31,72691;1270,91585;0,00073
477,90602;31,86019;1270,48027;0,00073
479,90602;31,99349;1271,17271;0,00073
481,90602;32,12692;1271,92475;0,00073
483,90602;32,26025;1272,51381;0,00073
485,90602;32,39361;1272,65174;0,00073
487,90602;32,52694;1272,67363;0,00073
489,90602;32,66024;1272,80522;0,00073
491,90602;32,79355;1274,58507;0,00073
493,90602;32,92688;1274,51299;0,00073
495,90602;33,06025;1275,84152;0,00073
497,90602;33,19352;1275,29949;0,00073
499,90602;33,32686;1276,53088;0,00073
501,90602;33,46024;1276,97587;0,00073
503,90602;33,59355;1277,60256;0,00072
505,90602;33,72691;1277,46779;0,00072
507,90602;33,86022;1277,87516;0,00073
509,90602;33,99352;1277,10430;0,00072
511,90602;34,12688;1277,28293;0,00072
513,90602;34,26024;1277,16074;0,00072
515,90602;34,39361;1276,94765;0,00072
517,90602;34,52691;1276,00757;0,00072
519,90602;34,66024;1274,92342;0,00073
521,90602;34,79355;1272,27567;0,00072
523,90602;34,92691;1270,11994;0,00072
525,90602;35,06025;1265,60777;0,00072
527,90603;35,19352;1257,44520;0,00072
529,86803;35,32438;962,80919;0,00072
529,87603;35,32492;678,65453;0,00072