Folder: DeSiPro_OmniUAV_2024/02_Appendices/Appendix_C_Experimental_Data/C_1_Materials_Tests/C_1_1_Tensile_tests/C_1_1_4_Impact Smooth 3D2

File: Specimen_RawData_2.csv
Text Inputs : Specimen label;"1"
Dimension : Length;50,00000;mm
Dimension : Final length;100,00000;mm
Test : Rate 1;4,00000;mm/min
General : Unique Identifier;"{D787D707-4BD7-4175-BDB0-88711FE09B24}"

Time;Extension;Load;Strain 1
(sec);(mm);(N);(mm/mm)
0,00000;0,00000;6,20328;0,00076
0,30000;0,01678;8,59722;0,00081
0,60000;0,03875;18,22624;0,00113
0,90000;0,05957;26,73976;0,00143
1,20000;0,08003;35,13107;0,00171
1,50000;0,10003;42,48836;0,00197
1,80000;0,12003;50,14017;0,00224
2,10000;0,14006;57,01178;0,00250
2,40000;0,15997;64,25313;0,00275
2,70000;0,18009;70,87719;0,00300
3,00000;0,19991;76,89024;0,00322
3,30000;0,21997;82,57113;0,00343
3,60000;0,24000;87,15533;0,00360
3,90000;0,25991;87,50001;0,00371
4,20000;0,28003;87,31514;0,00376
4,50000;0,30003;87,27127;0,00382
4,80000;0,32006;89,08239;0,00387
5,10000;0,33997;90,38904;0,00392
5,40000;0,35994;89,15133;0,00396
5,70000;0,38006;90,01616;0,00400
6,00000;0,40000;90,84338;0,00403
6,30000;0,41997;91,10658;0,00406
6,60000;0,43994;90,81831;0,00409
6,90000;0,45997;90,97185;0,00411
7,20000;0,48000;90,74624;0,00413
7,50000;0,50000;91,13165;0,00417
7,80000;0,52006;93,89221;0,00421
8,10000;0,54003;95,33984;0,00425
8,40000;0,55994;94,99203;0,00430
8,70000;0,58003;97,17603;0,00440
9,00000;0,60000;101,13354;0,00451
9,30000;0,61997;104,16356;0,00465
9,60000;0,63991;109,75359;0,00484
9,90000;0,65991;114,97076;0,00503
10,20000;0,68006;120,95246;0,00525
10,50000;0,70003;126,22288;0,00548
10,80000;0,72006;132,20146;0,00569
11,10000;0,74008;138,03276;0,00591
11,40000;0,75994;143,39093;0,00612
11,70000;0,78000;149,28490;0,00636
12,00000;0,79994;155,14127;0,00660
12,30000;0,81997;161,77474;0,00684
12,60000;0,83997;167,56844;0,00708
12,90000;0,85989;173,77262;0,00732
13,20000;0,88006;179,57259;0,00757
13,50000;0,90003;185,29423;0,00780
13,80000;0,92000;190,83412;0,00805
14,10000;0,94008;196,73749;0,00828
14,40000;0,95997;202,46538;0,00852
14,70000;0,98000;208,83251;0,00876
15,00000;0,99994;213,93059;0,00900
15,30000;1,02003;219,05375;0,00924
15,60000;1,04003;225,02292;0,00947
15,90000;1,05988;230,28080;0,00970
16,20000;1,08003;235,96170;0,00994
16,50000;1,10003;240,29210;0,01017
16,80000;1,12006;246,56209;0,01039
17,10000;1,14003;251,58497;0,01062
17,40000;1,16000;255,67096;0,01083
17,70000;1,18006;260,20503;0,01105
18,00000;1,19991;264,74537;0,01125
18,30000;1,21997;269,60531;0,01146
18,60000;1,23997;274,33052;0,01166
18,90000;1,25994;278,62643;0,01186
19,20000;1,28003;281,97293;0,01207
19,50000;1,30003;286,69187;0,01227
19,80000;1,32011;291,03167;0,01247
20,10000;1,33997;296,07334;0,01267
20,40000;1,35994;299,51697;0,01287
20,70000;1,38003;304,07298;0,01307
21,00000;1,40000;307,96470;0,01327
21,30000;1,42000;311,93162;0,01347
21,60000;1,43997;317,04849;0,01368
21,90000;1,45994;320,81802;0,01387
22,20000;1,48000;324,99486;0,01407
22,50000;1,50000;329,80780;0,01428
22,80000;1,52008;334,69908;0,01448
23,10000;1,54003;338,16779;0,01468
23,40000;1,55994;342,08456;0,01488
23,70000;1,58003;346,02014;0,01508
24,00000;1,60000;350,50721;0,01529
24,30000;1,61997;354,21720;0,01549
24,60000;1,63994;359,22127;0,01569
24,90000;1,65994;362,42991;0,01589
25,20000;1,68003;366,79790;0,01610
25,50000;1,70000;371,50744;0,01630
25,80000;1,72003;375,19548;0,01650
26,10000;1,74008;380,02722;0,01671
26,40000;1,75997;383,28599;0,01691
26,70000;1,78003;387,77932;0,01711
27,00000;1,80000;391,81202;0,01732
27,30000;1,81997;395,22434;0,01752
27,60000;1,83994;400,47592;0,01773
27,90000;1,85988;403,72219;0,01793
28,20000;1,88008;408,22178;0,01814
28,50000;1,90005;412,85297;0,01835
28,80000;1,92003;415,79842;0,01855
29,10000;1,94003;420,67398;0,01877
29,40000;1,95997;424,38083;0,01897
29,70000;1,98003;428,27572;0,01918
30,00000;1,99994;432,60921;0,01939
30,30000;2,02003;436,29725;0,01961
30,60000;2,04000;441,74944;0,01982
30,90000;2,05985;445,14607;0,02003
31,20000;2,08005;449,11611;0,02024
31,50000;2,10003;452,96396;0,02045
31,80000;2,12005;457,29433;0,02067
32,10000;2,14003;462,39556;0,02088
32,40000;2,16000;464,99944;0,02110
32,70000;2,18008;469,34551;0,02131
33,00000;2,19991;473,71350;0,02153
33,30000;2,21997;476,94091;0,02175
33,60000;2,23997;482,32414;0,02197
33,90000;2,25994;485,36672;0,02219
34,20000;2,28003;489,30855;0,02240
34,50000;2,30003;493,93349;0,02263
34,80000;2,32008;498,29208;0,02284
35,10000;2,34000;502,51596;0,02307
35,40000;2,35997;506,38258;0,02329
35,70000;2,38005;509,83564;0,02351
36,00000;2,39997;513,97802;0,02373
36,30000;2,41997;518,20814;0,02396
36,60000;2,43997;523,00543;0,02419
36,90000;2,45994;526,31120;0,02442
37,20000;2,48003;531,16172;0,02464
37,50000;2,50000;534,58968;0,02487
37,80000;2,52008;539,08615;0,02510
38,10000;2,54003;543,17215;0,02534
38,40000;2,55994;546,73487;0,02556
38,70000;2,58003;550,18789;0,02580
39,00000;2,60000;554,98830;0,02603
39,30000;2,61997;558,79853;0,02626
39,60000;2,63994;563,75563;0,02649
39,90000;2,65994;567,08017;0,02673
40,20000;2,68005;571,47010;0,02697
40,50000;2,70000;575,16131;0,02720
40,80000;2,72005;579,29740;0,02744
41,10000;2,74008;583,92859;0,02768
41,40000;2,75994;587,25006;0,02792
41,70000;2,78000;591,32976;0,02816
42,00000;2,79997;595,13687;0,02839
42,30000;2,81997;599,66156;0,02864
42,60000;2,83994;603,95747;0,02888
42,90000;2,85991;606,87782;0,02912
43,20000;2,88008;610,87920;0,02936
43,50000;2,90005;615,15947;0,02960
43,80000;2,92003;618,88197;0,02984
44,10000;2,94005;623,10584;0,03009
44,40000;2,95994;626,84086;0,03033
44,70000;2,98000;630,90804;0,03058
45,00000;2,99997;634,90006;0,03083
45,30000;3,02005;638,37501;0,03107
45,60000;3,03997;643,52322;0,03132
45,90000;3,05985;645,91719;0,03157
46,20000;3,08002;650,89930;0,03182
46,50000;3,10005;653,55645;0,03207
46,80000;3,12002;657,76152;0,03232
47,10000;3,14003;662,34260;0,03257
47,40000;3,16000;665,35696;0,03283
47,70000;3,18005;668,44025;0,03308
48,00000;3,19991;672,01862;0,03333
48,30000;3,22000;676,59966;0,03359
48,60000;3,23997;680,71699;0,03384
48,90000;3,25988;683,59035;0,03410
49,20000;3,28002;688,10876;0,03435
49,50000;3,30000;690,68442;0,03461
49,80000;3,32011;694,43826;0,03487
50,10000;3,33997;699,05380;0,03512
50,40000;3,35994;702,21545;0,03538
50,70000;3,38005;706,16039;0,03565
51,00000;3,40000;709,76699;0,03591
51,30000;3,41997;712,75625;0,03617
51,60000;3,43997;716,94255;0,03644
51,90000;3,45991;720,59613;0,03670
52,20000;3,48002;724,74475;0,03696
52,50000;3,50000;727,58989;0,03723
52,80000;3,52008;731,78243;0,03750
53,10000;3,54002;736,00942;0,03777
53,40000;3,55991;737,95216;0,03804
53,70000;3,58000;741,86265;0,03831
54,00000;3,60002;745,92670;0,03858
54,30000;3,61997;748,85963;0,03885
54,60000;3,63994;753,33728;0,03912
54,90000;3,65991;756,26075;0,03939
55,20000;3,68002;759,85165;0,03967
55,50000;3,70002;763,12609;0,03995
55,80000;3,72005;766,54777;0,04023
56,10000;3,74008;770,23585;0,04051
56,40000;3,75994;772,91490;0,04079
56,70000;3,78000;776,81602;0,04107
57,00000;3,80000;779,99020;0,04135
57,30000;3,82000;783,26464;0,04164
57,60000;3,83994;787,23775;0,04192
57,90000;3,85991;789,97323;0,04220
58,20000;3,88008;795,12149;0,04249
58,50000;3,90002;796,98274;0,04277
58,80000;3,92002;799,95636;0,04305
59,10000;3,94005;804,05800;0,04334
59,40000;3,95997;806,80288;0,04362
59,70000;3,98002;810,09297;0,04391
60,00000;3,99994;813,02589;0,04420
60,30000;4,02002;815,84593;0,04449
60,60000;4,04000;820,12312;0,04478
60,90000;4,05985;822,92752;0,04507
61,20000;4,08005;825,52200;0,04537
61,50000;4,10005;828,20728;0,04567
61,80000;4,12005;832,37477;0,04596
62,10000;4,14002;836,10667;0,04626
62,40000;4,15999;838,05565;0,04656
62,70000;4,18008;841,17027;0,04685
63,00000;4,19994;843,15063;0,04715
63,30000;4,21997;845,97385;0,04745
63,60000;4,23997;850,09430;0,04775
63,90000;4,25991;852,52579;0,04804
64,20000;4,28002;855,20493;0,04835
64,50000;4,30005;858,10646;0,04865
64,80000;4,32008;860,76986;0,04896
65,10000;4,33999;864,85269;0,04926
65,40000;4,35994;866,36301;0,04956
65,70000;4,38005;869,36802;0,04987
66,00000;4,39997;872,44818;0,05018
66,30000;4,41997;874,90473;0,05048
66,46600;4,43113;877,41148;0,05066

File: Specimen_RawData_5.csv
Text Inputs : Specimen label;"1"
Dimension : Length;50,00000;mm
Dimension : Final length;100,00000;mm
Test : Rate 1;4,00000;mm/min
General : Unique Identifier;"{3D2A4C0C-3144-46BB-A942-5194557997FF}"

Time;Extension;Load;Strain 1
(sec);(mm);(N);(mm/mm)
0,00000;0,00000;8,79924;0,00011
1,20000;0,08003;35,73104;0,00093
2,40000;0,15997;63,05451;0,00183
3,60000;0,23997;85,93164;0,00264
4,80000;0,32006;92,04809;0,00296
6,00000;0,39997;91,92902;0,00304
7,20000;0,48000;94,68331;0,00316
8,40000;0,55997;96,96131;0,00331
9,60000;0,63994;106,23625;0,00363
10,80000;0,72003;128,58697;0,00441
12,00000;0,79997;151,07556;0,00523
13,20000;0,88008;169,65992;0,00598
14,40000;0,95994;184,04861;0,00657
15,60000;1,04000;196,18436;0,00709
16,80000;1,12006;207,08553;0,00759
18,00000;1,19991;217,80813;0,00810
19,20000;1,28006;229,55847;0,00860
20,40000;1,35994;239,55097;0,00908
21,60000;1,43997;251,60839;0,00958
22,80000;1,52006;261,67296;0,01009
24,00000;1,60003;273,60504;0,01062
25,20000;1,68003;286,77483;0,01121
26,40000;1,75997;300,82196;0,01185
27,60000;1,83991;316,60504;0,01252
28,80000;1,92003;332,44137;0,01323
30,00000;1,99997;348,74771;0,01396
31,20000;2,08005;366,00663;0,01471
32,40000;2,16003;381,47634;0,01547
33,60000;2,23997;397,23432;0,01622
34,80000;2,32005;413,58769;0,01698
36,00000;2,39997;429,84076;0,01775
37,20000;2,48003;445,95595;0,01854
38,40000;2,55997;461,97092;0,01934
39,60000;2,63994;479,26428;0,02017
40,80000;2,72005;497,12169;0,02102
42,00000;2,79997;514,46832;0,02188
43,20000;2,88005;531,86822;0,02277
44,40000;2,95997;548,67277;0,02367
45,60000;3,03997;566,92185;0,02458
46,80000;3,12005;584,25595;0,02552
48,00000;3,19991;602,82466;0,02646
49,20000;3,28002;620,49716;0,02744
50,40000;3,35994;638,47364;0,02843
51,60000;3,43997;657,45595;0,02943
52,80000;3,52008;675,15350;0,03045
54,00000;3,60000;693,86321;0,03149
55,20000;3,68002;710,14762;0,03253
56,40000;3,75994;728,20242;0,03361
57,60000;3,83994;746,52354;0,03470
58,80000;3,92002;763,76051;0,03581
60,00000;4,00000;781,25754;0,03693
61,20000;4,08008;797,77073;0,03806
62,40000;4,15999;814,08331;0,03920
63,60000;4,23997;831,41746;0,04035
64,80000;4,32005;847,07830;0,04153
66,00000;4,39997;861,98710;0,04271
67,20000;4,48002;877,67616;0,04390
68,40000;4,55997;892,24037;0,04510
69,60000;4,63994;907,00816;0,04631
70,80000;4,72005;920,00877;0,04753
72,00000;4,79999;933,66737;0,04875
73,20000;4,88008;946,16665;0,04999
74,40000;4,95997;958,48413;0,05124
75,41400;5,02754;968,40141;0,05230
76,61400;5,10740;979,59712;0,05356
77,81400;5,18752;991,03730;0,05484
79,01400;5,26740;1002,06379;0,05613
80,21400;5,34743;1011,75234;0,05742
81,41400;5,42749;1021,92657;0,05873
82,61400;5,50749;1030,99160;0,06004
83,81400;5,58754;1039,76512;0,06136
85,01400;5,66743;1047,67708;0,06269
86,21400;5,74749;1055,64538;0,06404
87,41400;5,82752;1063,76717;0,06540
88,61400;5,90740;1071,27177;0,06676
89,81400;5,98751;1076,99027;0,06813
91,01400;6,06740;1084,13761;0,06952
92,21400;6,14746;1089,71512;0,07092
93,41400;6,22749;1096,01952;0,07232
94,61400;6,30746;1101,16461;0,07373
95,81400;6,38749;1105,28823;0,07515
97,01400;6,46746;1110,37064;0,07658
98,21400;6,54746;1113,68895;0,07802
99,41400;6,62746;1118,53639;0,07947
100,61400;6,70740;1121,91727;0,08092
101,81400;6,78751;1124,10448;0,08237
103,01400;6,86743;1127,33496;0,08384
104,21400;6,94749;1129,84804;0,08533
105,41401;7,02757;1133,12248;0,08682
106,61401;7,10740;1135,77330;0,08831
107,81401;7,18751;1137,51553;0,08981
109,01401;7,26740;1139,03834;0,09133
110,21401;7,34743;1141,66103;0,09285
111,41401;7,42748;1143,51911;0,09438
112,61401;7,50746;1145,52770;0,09590
113,81401;7,58754;1145,90367;0,09744
115,01401;7,66746;1147,27924;0,09898
116,21401;7,74748;1148,02504;0,10053
117,41401;7,82751;1149,36614;0,10207
118,61401;7,90740;1149,79539;0,10363
119,81401;7,98751;1151,44989;0,10520
121,01401;8,06740;1151,04560;0,10676
122,21401;8,14746;1151,75070;0,10832
123,41401;8,22748;1153,42075;0,10990
124,61401;8,30748;1152,80040;0,11148
125,81401;8,38751;1153,03537;0,11306
127,01401;8,46745;1152,74079;0,11465
128,21401;8,54745;1152,70009;0,11624
129,41401;8,62745;1153,90643;0,11784
130,61401;8,70740;1153,53363;0,11943
131,81401;8,78748;1153,24222;0,12104
133,01401;8,86743;1153,11993;0,12264
134,21401;8,94748;1152,74079;0,12425
135,41401;9,02757;1151,84784;0,12586
136,61401;9,10742;1152,89120;0,12748
137,81401;9,18751;1150,90152;0,12909
139,01401;9,26740;1151,29948;0,13070
140,21401;9,34743;1151,38087;0,13234
141,41401;9,42751;1151,34018;0,13396
142,61401;9,50745;1151,53128;0,13558
143,81401;9,58751;1150,05551;0,13721
145,01401;9,66745;1149,90817;0,13884
146,21401;9,74748;1149,82044;0,14048
147,41401;9,82751;1149,67003;0,14212
148,61401;9,90740;1148,98384;0,14376
149,81401;9,98751;1147,86522;0,14541
151,01401;10,06740;1148,38220;0,14705
152,21401;10,14745;1147,99058;0,14870
153,41401;10,22748;1147,72422;0,15035
154,61401;10,30748;1147,62392;0,15200
155,81401;10,38751;1146,11359;0,15365
157,01401;10,46748;1146,38936;0,15530
158,21401;10,54745;1146,31420;0,15696
159,41401;10,62745;1145,32085;0,15861
160,61401;10,70742;1145,29263;0,16026
161,81401;10,78751;1143,68210;0,16192
163,01401;10,86740;1143,58179;0,16359
164,21401;10,94748;1143,96410;0,16525
165,41401;11,02757;1143,28414;0,16693
166,61401;11,10739;1142,66686;0,16859
167,81401;11,18754;1142,09661;0,17027
169,01401;11,26739;1142,30337;0,17193
170,21401;11,34742;1142,01820;0,17362
171,41401;11,42751;1140,92780;0,17530
172,61401;11,50745;1141,75817;0,17698
173,81401;11,58754;1139,85930;0,17865
175,01401;11,66745;1140,13506;0,18032
176,21401;11,74748;1140,16328;0,18201
177,41401;11,82751;1140,20081;0,18369
178,61401;11,90739;1139,57413;0,18537
179,81401;11,98751;1139,06031;0,18705
181,01401;12,06742;1138,01369;0,18873
182,21401;12,14745;1138,43670;0,19042
183,41401;12,22751;1138,98823;0,19211
184,61401;12,30748;1139,00388;0,19380
185,81401;12,38751;1137,61267;0,19549
187,01401;12,46748;1138,24559;0,19719
188,21401;12,54745;1137,43087;0,19889
189,41401;12,62745;1138,18916;0,20058
190,61401;12,70739;1137,75991;0,20227
191,81401;12,78751;1137,13006;0,20397
193,01401;12,86742;1136,97341;0,20566
194,21401;12,94748;1136,85746;0,20736
195,41401;13,02756;1136,87003;0,20905
196,61401;13,10742;1138,09835;0,21075
197,81401;13,18751;1137,01420;0,21245
199,01401;13,26739;1136,45643;0,21414
200,21401;13,34742;1137,07054;0,21585
201,41401;13,42751;1136,54723;0,21755
202,61401;13,50745;1136,63189;0,21925
203,81401;13,58753;1136,36870;0,22096
205,01401;13,66742;1136,41256;0,22266
206,21401;13,74748;1135,61042;0,22438
207,41401;13,82751;1136,29662;0,22609
208,61401;13,90742;1136,12423;0,22780
209,81401;13,98750;1135,78895;0,22951
211,01401;14,06745;1136,08669;0,23122
212,21401;14,14745;1136,67259;0,23292
213,41401;14,22748;1136,82933;0,23464
214,61401;14,30748;1136,34672;0,23636
215,81401;14,38750;1135,18741;0,23807
217,01401;14,46748;1136,50030;0,23979
218,21401;14,54745;1135,71379;0,24151
219,41401;14,62748;1136,11175;0,24323
220,61401;14,70739;1136,58803;0,24495
221,81401;14,78750;1136,14621;0,24666
223,01401;14,86745;1136,37811;0,24839
224,21401;14,94748;1136,04283;0,25012
225,41401;15,02753;1136,98905;0,25185
226,61401;15,10742;1137,03609;0,25357
227,81401;15,18753;1136,05531;0,25530
229,01401;15,26742;1136,73219;0,25701
230,21401;15,34742;1136,92014;0,25873
231,41401;15,42750;1137,17085;0,26046
232,61401;15,50745;1137,70664;0,26219
233,81401;15,58753;1136,94211;0,26391
235,01401;15,66742;1137,56880;0,26563
236,21401;15,74747;1137,06114;0,26736
237,41401;15,82750;1137,63148;0,26909
238,61401;15,90742;1137,65653;0,27082
239,81401;15,98750;1137,28680;0,27255
241,01401;16,06742;1137,49988;0,27428
242,21401;16,14745;1138,31451;0,27602
243,41401;16,22750;1138,19232;0,27776
244,61401;16,30747;1138,96942;0,27949
245,81401;16,38750;1138,09835;0,28122
247,01401;16,46747;1138,74068;0,28295
248,21401;16,54745;1138,80644;0,28468
249,41401;16,62747;1139,16369;0,28641
250,61401;16,70742;1139,27023;0,28814
251,81401;16,78750;1138,44927;0,28988
253,01401;16,86744;1139,53026;0,29161
254,21401;16,94747;1138,62474;0,29336
255,41401;17,02756;1139,50837;0,29510
256,61401;17,10742;1139,75909;0,29683
257,81401;17,18753;1139,08220;0,29858
259,01401;17,26744;1140,94038;0,30032
260,21401;17,34742;1140,14754;0,30207
261,41401;17,42747;1141,48874;0,30382
262,61401;17,50744;1140,90275;0,30556
263,81401;17,58753;1140,31993;0,30729
265,01401;17,66744;1141,36022;0,30903
266,21401;17,74747;1141,24427;0,31078
267,41401;17,82753;1141,59836;0,31251
268,61401;17,90742;1141,69549;0,31425
269,81401;17,98750;1141,60459;0,31599
271,01401;18,06741;1142,34416;0,31774
272,21401;18,14744;1143,02095;0,31948
273,41401;18,22750;1143,45960;0,32122
274,61401;18,30747;1142,98016;0,32296
275,81401;18,38750;1143,15571;0,32471
277,01401;18,46747;1144,83833;0,32645
278,21401;18,54747;1143,44079;0,32820
279,41401;18,62747;1144,52187;0,32995
280,61401;18,70741;1144,75368;0,33169
281,81401;18,78750;1144,78823;0,33344
283,01401;18,86741;1145,68751;0,33519
284,21401;18,94747;1144,45295;0,33692
285,41401;19,02756;1145,56840;0,33868
286,61401;19,10741;1145,49007;0,34042
287,81401;19,18750;1146,74969;0,34216
289,01401;19,26741;1147,84325;0,34390
290,21401;19,34744;1147,18527;0,34565
291,41401;19,42750;1147,21972;0,34739
292,61401;19,50744;1147,91850;0,34914
293,81401;19,58753;1147,88711;0,35088
295,01401;19,66744;1149,24395;0,35263
296,21401;19,74747;1149,19068;0,35439
297,41401;19,82750;1149,00265;0,35614
298,61401;19,90741;1149,68577;0,35789
299,81401;19,98750;1150,03046;0,35964
301,01401;20,06744;1150,96420;0,36138
302,21401;20,14747;1151,69743;0,36314
303,41401;20,22750;1151,81645;0,36488
304,61401;20,30747;1152,09222;0,36662
305,81401;20,38750;1151,72872;0,36836
307,01401;20,46747;1153,54611;0,37011
308,21401;20,54747;1152,88179;0,37186
309,41401;20,62744;1153,68087;0,37360
310,61401;20,70741;1153,71216;0,37535
311,81401;20,78753;1153,94406;0,37709
313,01401;20,86744;1155,55460;0,37884
314,21401;20,94747;1155,02197;0,38059
315,41401;21,02753;1155,34468;0,38233
316,17602;21,07832;634,30616;0,38613