Folder: DeSiPro_OmniUAV_2024/02_Appendices/Appendix_C_Experimental_Data/C_1_Materials_Tests/C_1_1_Tensile_tests/C_1_1_4_Impact Smooth 3D2 (part 2)

File: Specimen_RawData_8.csv
Text Inputs : Specimen label;"1"
Dimension : Length;50,00000;mm
Dimension : Final length;100,00000;mm
Test : Rate 1;4,00000;mm/min
General : Unique Identifier;"{299842E3-C6F9-4985-AFEC-FA4B1AB70FEF}"

Time;Extension;Load;Strain 1
(sec);(mm);(N);(mm/mm)
0,00000;0,00000;6,22832;0,00016
1,30000;0,08670;35,88933;0,00106
2,60000;0,17333;65,75400;0,00205
3,90000;0,25991;88,30840;0,00295
5,20000;0,34661;90,32007;0,00319
6,50000;0,43339;93,03988;0,00336
7,80000;0,52008;93,49423;0,00345
9,10000;0,60669;100,40656;0,00365
10,40000;0,69333;116,63771;0,00424
11,70000;0,78000;141,05963;0,00506
13,00000;0,86661;163,95557;0,00589
14,30000;0,95328;184,11917;0,00668
15,60000;1,03997;203,11398;0,00743
16,90000;1,12664;219,81827;0,00815
18,20000;1,21336;235,57940;0,00882
19,50000;1,30003;251,47214;0,00951
20,80000;1,38669;266,87919;0,01018
22,10000;1,47339;281,35874;0,01084
23,40000;1,55991;295,08315;0,01149
24,70000;1,64664;310,52467;0,01216
26,00000;1,73336;326,29834;0,01286
27,30000;1,81997;342,12528;0,01358
28,60000;1,90661;360,40568;0,01437
29,90000;1,99327;378,44481;0,01522
31,20000;2,08008;399,16928;0,01612
32,50000;2,16675;419,04459;0,01706
33,80000;2,25330;440,54929;0,01803
35,10000;2,34000;462,99091;0,01904
36,40000;2,42669;484,14464;0,02008
37,70000;2,51336;506,00967;0,02113
39,00000;2,60000;528,62987;0,02220
40,30000;2,68666;549,45461;0,02330
41,60000;2,77324;571,73329;0,02440
42,90000;2,85991;593,38841;0,02552
44,20000;2,94669;614,73330;0,02665
45,50000;3,03342;635,78365;0,02779
46,80000;3,12002;655,76863;0,02893
48,10000;3,20666;677,79659;0,03009
49,40000;3,29330;696,51571;0,03126
50,70000;3,38005;716,78897;0,03245
52,00000;3,46663;736,49823;0,03365
53,30000;3,55327;754,85068;0,03485
54,60000;3,63994;774,10871;0,03607
55,90000;3,72666;793,18183;0,03730
57,20000;3,81336;810,91393;0,03854
58,50000;3,90005;828,48929;0,03979
59,80000;3,98672;845,98633;0,04104
61,10000;4,07339;862,31465;0,04230
62,40000;4,15999;877,78438;0,04357
63,70000;4,24663;892,90310;0,04484
65,00000;4,33333;907,96547;0,04613
66,30000;4,41994;922,15361;0,04742
67,60000;4,50660;936,58622;0,04873
68,90000;4,59330;949,25156;0,05004
70,02800;4,66837;961,56271;0,05120
71,32800;4,75504;972,92457;0,05255
72,62800;4,84173;985,76844;0,05390
73,92800;4,92834;996,58193;0,05528
75,22800;5,01507;1008,55790;0,05666
76,52800;5,10173;1019,74737;0,05806
77,82800;5,18846;1029,19145;0,05947
79,12800;5,27509;1039,41271;0,06089
80,42800;5,36170;1048,55606;0,06233
81,72800;5,44846;1056,14522;0,06379
83,02800;5,53506;1065,55801;0,06525
84,32800;5,62167;1073,31323;0,06673
85,62800;5,70837;1080,76762;0,06823
86,92800;5,79501;1087,52642;0,06975
88,22800;5,88176;1093,30760;0,07127
89,52800;5,96840;1100,65555;0,07281
90,82800;6,05504;1107,16987;0,07437
92,12800;6,14176;1111,49400;0,07594
93,42800;6,22848;1116,65167;0,07751
94,72800;6,31512;1121,37375;0,07911
96,02800;6,40173;1125,65709;0,08072
97,32800;6,48837;1130,04074;0,08233
98,62800;6,57506;1133,55964;0,08397
99,92800;6,66167;1135,57437;0,08561
101,22800;6,74840;1139,45985;0,08727
102,52800;6,83512;1142,32376;0,08893
103,82800;6,92179;1144,98725;0,09061
105,12800;7,00842;1146,98317;0,09229
106,42801;7,09506;1149,25494;0,09400
107,72801;7,18179;1149,81271;0,09571
109,02801;7,26837;1153,02755;0,09744
110,32801;7,35501;1154,18378;0,09917
111,62801;7,44173;1155,87590;0,10092
112,92801;7,52834;1157,30157;0,10267
114,22801;7,61506;1157,27028;0,10443
115,52801;7,70176;1159,93991;0,10620
116,82801;7,78845;1160,37549;0,10797
118,12801;7,87512;1160,60423;0,10976
119,42801;7,96170;1160,05270;0,11155
120,72801;8,04839;1161,51916;0,11335
122,02801;8,13506;1162,06435;0,11516
123,32801;8,22173;1161,98603;0,11698
124,62801;8,30839;1162,22417;0,11880
125,92801;8,39500;1161,94533;0,12062
127,22801;8,48167;1163,20178;0,12246
128,52801;8,56839;1162,58767;0,12430
129,82801;8,65509;1162,28685;0,12615
131,12801;8,74181;1161,70403;0,12802
132,42801;8,82845;1162,23982;0,12988
133,72801;8,91506;1161,63194;0,13174
135,02801;9,00173;1162,08009;0,13361
136,32801;9,08839;1160,98337;0,13548
137,62801;9,17503;1160,95832;0,13735
138,92801;9,26164;1159,91170;0,13924
140,22801;9,34834;1160,40055;0,14113
141,52801;9,43509;1159,70802;0,14302
142,82801;9,52178;1159,34145;0,14492
144,12801;9,60848;1158,45157;0,14682
145,42801;9,69506;1158,14134;0,14873
146,72801;9,78176;1157,64001;0,15064
148,02801;9,86839;1157,95024;0,15255
149,32801;9,95503;1157,23265;0,15448
150,62801;10,04170;1155,70668;0,15640
151,92801;10,12834;1156,23930;0,15833
153,22801;10,21506;1156,45872;0,16025
154,52801;10,30178;1155,68787;0,16217
155,82801;10,38842;1154,36865;0,16410
157,12801;10,47512;1154,10862;0,16603
158,42801;10,56170;1153,10904;0,16797
159,72801;10,64842;1153,61977;0,16991
161,02801;10,73514;1153,13726;0,17184
162,32801;10,82170;1152,57008;0,17379
163,62801;10,90834;1152,74247;0,17573
164,92801;10,99500;1152,47928;0,17768
166,22801;11,08173;1151,11619;0,17965
167,52801;11,16845;1150,57724;0,18158
168,82801;11,25506;1150,88122;0,18354
170,12801;11,34175;1150,50515;0,18550
171,42801;11,42845;1149,52438;0,18746
172,72801;11,51512;1148,83194;0,18941
174,02801;11,60178;1149,82519;0,19136
175,32801;11,68839;1148,57499;0,19331
176,62801;11,77500;1148,42774;0,19526
177,92801;11,86164;1148,31803;0,19722
179,22801;11,94839;1148,44022;0,19919
180,52801;12,03509;1148,19268;0,20116
181,82801;12,12178;1147,28091;0,20313
183,12801;12,20845;1147,55975;0,20509
184,42801;12,29506;1147,86681;0,20706
185,72801;12,38178;1147,18061;0,20903
187,02801;12,46842;1147,26210;0,21100
188,32801;12,55503;1146,30321;0,21297
189,62801;12,64167;1146,21548;0,21493
190,92801;12,72836;1145,82386;0,21691
192,22801;12,81506;1145,08122;0,21888
193,52801;12,90178;1145,76435;0,22085
194,82801;12,98839;1145,44472;0,22281
196,12801;13,07511;1145,56374;0,22478
197,42801;13,16175;1145,83950;0,22675
198,72801;13,24839;1145,25352;0,22873
200,02801;13,33503;1144,90576;0,23069
201,32801;13,42175;1145,44472;0,23267
202,62801;13,50842;1145,46036;0,23464
203,92801;13,59503;1144,94646;0,23662
205,22801;13,68172;1144,12550;0,23860
206,52801;13,76836;1144,93081;0,24058
207,82801;13,85508;1145,69850;0,24256
209,12801;13,94178;1145,89278;0,24453
210,42801;14,02847;1143,79339;0,24651
211,72801;14,11511;1145,00914;0,24848
213,02801;14,20169;1145,29431;0,25045
214,32801;14,28839;1145,22222;0,25242
215,62801;14,37505;1144,53910;0,25439
216,92801;14,46166;1145,19717;0,25637
218,22801;14,54836;1145,65147;0,25834
219,52801;14,63505;1146,17795;0,26031
220,82801;14,72178;1144,63624;0,26229
222,12801;14,80845;1144,78040;0,26425
223,42801;14,89505;1146,30321;0,26623
224,72801;14,98175;1146,31895;0,26821
226,02801;15,06836;1145,40393;0,27017
227,32801;15,15503;1145,62018;0,27214
228,62801;15,24172;1145,98675;0,27412
229,92801;15,32836;1146,43797;0,27609
231,22801;15,41508;1145,81129;0,27805
232,52801;15,50175;1145,98367;0,28002
233,82801;15,58847;1146,82028;0,28200
235,12801;15,67511;1146,91118;0,28396
236,42801;15,76169;1146,25003;0,28592
237,72801;15,84839;1146,78266;0,28790
239,02801;15,93505;1147,51589;0,28986
240,32801;16,02177;1147,75719;0,29184
241,62801;16,10836;1146,83909;0,29382
242,92801;16,19494;1148,16763;0,29578
244,22801;16,28175;1147,46578;0,29776
245,52801;16,36841;1148,56558;0,29973
246,82801;16,45511;1147,25269;0,30169
248,12801;16,54178;1149,05443;0,30367
249,42801;16,62838;1149,95996;0,30563
250,72801;16,71511;1149,54319;0,30759
252,02801;16,80172;1148,76609;0,30955
253,32801;16,88841;1150,27018;0,31152
254,62801;16,97505;1150,26394;0,31349
255,92801;17,06160;1150,14482;0,31544
257,22801;17,14836;1149,52754;0,31741
258,52801;17,23511;1150,39861;0,31938
259,82801;17,32183;1150,83102;0,32133
261,12801;17,40844;1151,79615;0,32329
262,42801;17,49505;1151,25719;0,32526
263,72801;17,58177;1151,26343;0,32721
265,02801;17,66838;1152,05627;0,32918
266,32801;17,75502;1151,97785;0,33113
267,62801;17,84166;1151,18828;0,33308
268,92801;17,92833;1152,21916;0,33504
270,22801;18,01511;1152,00300;0,33700
271,52801;18,10175;1153,66364;0,33896
272,82801;18,18844;1152,11261;0,34091
274,12801;18,27514;1153,52580;0,34286
275,42801;18,36169;1153,71067;0,34480
276,72801;18,44844;1153,81721;0,34676
278,02801;18,53505;1154,03654;0,34871
279,32801;18,62169;1154,51599;0,35067
280,62801;18,70838;1155,50924;0,35261
281,92801;18,79496;1155,09564;0,35456
283,22801;18,88174;1155,04554;0,35651
284,52801;18,96838;1156,02631;0,35844
285,82801;19,05502;1157,45515;0,36039
287,12801;19,14177;1156,23306;0,36232
288,42801;19,22847;1155,87590;0,36426
289,72801;19,31516;1156,12652;0,36619
291,02801;19,40172;1158,36691;0,36813
292,32801;19,48833;1157,58674;0,37006
293,62801;19,57505;1157,91261;0,37200
294,92801;19,66166;1158,36384;0,37394
296,22801;19,74838;1159,88348;0,37588
297,52801;19,83508;1160,72018;0,37781
298,82801;19,92177;1159,25688;0,37975
300,12801;20,00844;1160,66998;0,38167
301,42801;20,09505;1161,13685;0,38360
302,72801;20,18180;1160,09656;0,38554
304,02801;20,26838;1161,77611;0,38746
305,32801;20,35499;1161,55362;0,38938
306,62801;20,44169;1162,39963;0,39130
307,92801;20,52832;1162,95740;0,39323
309,22801;20,61508;1163,24257;0,39515
310,52801;20,70174;1164,11680;0,39707
311,82801;20,78844;1163,53082;0,39900
313,12801;20,87513;1164,89390;0,40092
314,42801;20,96169;1164,99411;0,40284
315,72801;21,04841;1164,91579;0,40476
317,02802;21,13510;1166,81149;0,40668
318,32802;21,22171;1166,95566;0,40860
319,62802;21,30841;1167,02775;0,41051
320,92802;21,39499;1167,21261;0,41243
322,22802;21,48166;1168,38133;0,41435
323,52802;21,56841;1168,50045;0,41627
324,82802;21,65510;1168,14012;0,41817
326,12802;21,74180;1168,95791;0,42007
326,89002;21,79251;656,59271;0,45091