Folder: DeSiPro_OmniUAV_2024/02_Appendices/Appendix_C_Experimental_Data/C_1_Materials_Tests/C_1_1_Tensile_tests/C_1_1_4_Impact Smooth 3D (part 2)

File: Specimen_RawData_5.csv
Text Inputs : Specimen label;"1"
Dimension : Length;50,00000;mm
Dimension : Final length;100,00000;mm
Test : Rate 1;4,00000;mm/min
General : Unique Identifier;"{908BCFA5-0D27-44FE-9028-AB6B56793D5A}"

Time;Extension;Load;Strain 1
(sec);(mm);(N);(mm/mm)
0,00000;0,00000;0,26413;-0,00001
1,20000;0,04003;11,58833;0,00020
2,40000;0,08000;24,95867;0,00050
3,60000;0,11997;37,13202;0,00078
4,80000;0,19444;61,02126;0,00131
6,00000;0,27447;84,83842;0,00191
7,20000;0,35450;107,26749;0,00251
8,40000;0,43444;119,34370;0,00292
9,60000;0,51447;118,63869;0,00303
10,80000;0,59447;118,10914;0,00310
12,00000;0,67442;117,99947;0,00317
13,20000;0,75453;119,37191;0,00325
14,40000;0,83450;133,81073;0,00362
15,60000;0,91444;153,25050;0,00413
16,80000;0,99447;171,61238;0,00465
18,00000;1,07441;192,06738;0,00526
19,20000;1,15447;212,37510;0,00588
20,40000;1,23447;232,59197;0,00652
21,60000;1,31447;251,85626;0,00715
22,80000;1,39447;270,55342;0,00778
24,00000;1,47444;288,20713;0,00842
25,20000;1,55447;305,72612;0,00907
26,40000;1,63447;323,76526;0,00971
27,60000;1,71450;340,77975;0,01035
28,80000;1,79447;356,92004;0,01099
30,00000;1,87439;373,46452;0,01164
31,20000;1,95450;388,32636;0,01229
32,40000;2,03441;404,41649;0,01293
33,60000;2,11453;419,36291;0,01359
34,80000;2,19447;433,26281;0,01424
36,00000;2,27444;448,92365;0,01490
37,20000;2,35450;462,68567;0,01555
38,40000;2,43444;475,87114;0,01621
39,60000;2,51447;488,36097;0,01687
40,80000;2,59447;500,80377;0,01754
42,00000;2,67444;513,25914;0,01821
43,20000;2,75450;524,42667;0,01888
44,40000;2,83450;536,22718;0,01956
45,60000;2,91447;546,25724;0,02024
46,80000;2,99447;556,66650;0,02092
48,00000;3,07444;567,76823;0,02159
49,20000;3,15447;577,40663;0,02228
50,40000;3,23447;586,58756;0,02298
51,60000;3,31450;596,28552;0,02367
52,80000;3,39447;604,51389;0,02436
54,00000;3,47444;612,85510;0,02507
55,20000;3,55450;621,84804;0,02578
56,40000;3,63447;629,44656;0,02648
57,60000;3,71447;636,40592;0,02720
58,80000;3,79447;643,25244;0,02792
60,00000;3,87441;650,94186;0,02865
61,20000;3,95450;656,95178;0,02938
62,40000;4,03444;663,51318;0,03011
63,60000;4,11450;670,00878;0,03085
64,80000;4,19447;675,16952;0,03159
66,00000;4,27447;679,88532;0,03233
67,20000;4,35450;685,79810;0,03309
68,40000;4,43444;690,22565;0,03384
69,60000;4,51447;695,14825;0,03460
70,80000;4,59447;699,80454;0,03537
72,00000;4,67444;704,55791;0,03615
73,20000;4,75452;708,41829;0,03693
74,40000;4,83450;711,55485;0,03772
75,60000;4,91447;715,63460;0,03851
76,80000;4,99447;719,00613;0,03930
78,00000;5,07444;722,67228;0,04011
79,20000;5,15447;725,99994;0,04091
80,40000;5,23444;728,63828;0,04173
81,60000;5,31447;732,23235;0,04255
82,80000;5,39447;734,44769;0,04337
84,00000;5,47444;736,81967;0,04420
85,20000;5,55452;738,93159;0,04502
86,40000;5,63444;741,97100;0,04586
87,60000;5,71447;744,41824;0,04670
88,80000;5,79449;746,40797;0,04755
90,00000;5,87441;747,85873;0,04840
91,20000;5,95447;749,73251;0,04925
92,40000;6,03447;751,63762;0,05011
93,47600;6,10609;752,99130;0,05088
94,67600;6,18600;754,88072;0,05174
95,87600;6,26612;756,25316;0,05262
97,07600;6,34603;757,55981;0,05349
98,27600;6,42606;759,72816;0,05437
99,47600;6,50609;760,95019;0,05525
100,67600;6,58600;761,33558;0,05613
101,87600;6,66609;763,09973;0,05702
103,07600;6,74609;763,89248;0,05791
104,27600;6,82606;764,82310;0,05881
105,47601;6,90609;766,43368;0,05970
106,67601;6,98603;767,03532;0,06060
107,87601;7,06609;768,34820;0,06150
109,07601;7,14606;768,49549;0,06241
110,27601;7,22609;769,47310;0,06332
111,47601;7,30609;770,28153;0,06423
112,67601;7,38600;770,90506;0,06514
113,87601;7,46606;771,74795;0,06606
115,07601;7,54609;772,58148;0,06698
116,27601;7,62606;772,86349;0,06790
117,47601;7,70612;773,30843;0,06883
118,67601;7,78603;774,34243;0,06975
119,87601;7,86606;774,28916;0,07068
121,07601;7,94606;775,07566;0,07161
122,27601;8,02609;775,30439;0,07255
123,47601;8,10609;775,47361;0,07348
124,67601;8,18600;776,15669;0,07441
125,87601;8,26612;777,10301;0,07535
127,07601;8,34603;777,71717;0,07629
128,27601;8,42606;777,85188;0,07722
129,47601;8,50609;778,15894;0,07816
130,67601;8,58600;778,96426;0,07910
131,87601;8,66609;778,06809;0,08005
133,07601;8,74609;779,08644;0,08100
134,27601;8,82609;778,96426;0,08194
135,47601;8,90609;779,43113;0,08288
136,67601;8,98603;779,42801;0,08383
137,87601;9,06609;779,90112;0,08479
139,07601;9,14606;780,27090;0,08574
140,27601;9,22609;780,43696;0,08669
141,47601;9,30609;780,85996;0,08764
142,67601;9,38597;781,70598;0,08860
143,87601;9,46611;781,48665;0,08955
145,07601;9,54606;781,56814;0,09050
146,27601;9,62609;781,40516;0,09146
147,47601;9,70611;781,91590;0,09241
148,67601;9,78600;782,61467;0,09337
149,87601;9,86606;782,50496;0,09432
151,07601;9,94606;783,12540;0,09528
152,27601;10,02606;782,70240;0,09624
153,47601;10,10611;783,15986;0,09720
154,67601;10,18603;783,93072;0,09816
155,87601;10,26611;784,15945;0,09912
157,07601;10,34603;784,27223;0,10008
158,27601;10,42606;784,26907;0,10104
159,47601;10,50608;784,47592;0,10200
160,67601;10,58600;784,58246;0,10296
161,87601;10,66608;784,18134;0,10392
163,07601;10,74608;784,60127;0,10488
164,27601;10,82608;784,51661;0,10584
165,47601;10,90608;785,23420;0,10680
166,67601;10,98603;785,41599;0,10776
167,87601;11,06608;785,49739;0,10872
169,07601;11,14606;786,11784;0,10968
170,27601;11,22608;785,71672;0,11064
171,47601;11,30608;785,89851;0,11161
172,67601;11,38600;785,55066;0,11257
173,87601;11,46608;785,93614;0,11353
175,07601;11,54608;786,68809;0,11450
176,27601;11,62606;786,98266;0,11546
177,47601;11,70611;787,26150;0,11642
178,67601;11,78603;787,23645;0,11738
179,87601;11,86605;786,33400;0,11835
181,07601;11,94603;786,93880;0,11930
182,27601;12,02608;787,57172;0,12027
183,47601;12,10608;787,07980;0,12122
184,67601;12,18603;787,19258;0,12219
185,87601;12,26614;787,62500;0,12315
187,07601;12,34603;787,57172;0,12410
188,27601;12,42608;788,16079;0,12506
189,47601;12,50608;788,20158;0,12602
190,67601;12,58600;788,05117;0,12698
191,87601;12,66608;788,30179;0,12794
193,07601;12,74608;789,52704;0,12890
194,27601;12,82608;788,94421;0,12985
195,47601;12,90608;789,57397;0,13081
196,67601;12,98603;789,31702;0,13177
197,87601;13,06608;789,15097;0,13272
199,07601;13,14605;789,60219;0,13368
200,27601;13,22608;789,94064;0,13463
201,47601;13,30608;790,15056;0,13558
202,67601;13,38600;791,04984;0,13653
203,87601;13,46608;790,70833;0,13748
205,07601;13,54611;790,86497;0,13844
206,27601;13,62608;791,01538;0,13939
207,47601;13,70611;790,85557;0,14034
208,67601;13,78602;791,81436;0,14129
209,87601;13,86608;791,76109;0,14224
211,07601;13,94605;792,55076;0,14319
212,27601;14,02608;792,51006;0,14413
213,47601;14,10608;793,38113;0,14508
214,67601;14,18602;793,04269;0,14603
215,87601;14,26614;793,54094;0,14697
217,07601;14,34605;793,94514;0,14792
218,27601;14,42608;793,46262;0,14886
219,47601;14,50608;793,24013;0,14980
220,67601;14,58600;793,98900;0,15074
221,87601;14,66608;795,07632;0,15169
223,07601;14,74608;794,70659;0,15263
224,27601;14,82605;794,34616;0,15356
225,47601;14,90608;794,45904;0,15450
226,67601;14,98602;795,62468;0,15544
227,87601;15,06608;795,97868;0,15638
229,07601;15,14605;795,46170;0,15732
230,27601;15,22611;795,77509;0,15826
231,47601;15,30608;796,06334;0,15919
232,67601;15,38599;796,64616;0,16012
233,87601;15,46611;797,18512;0,16106
235,07601;15,54611;797,02213;0,16199
236,27601;15,62608;797,16947;0,16292
237,47601;15,70611;796,85925;0,16385
238,67601;15,78602;798,46978;0,16478
239,87601;15,86605;797,73655;0,16571
241,07601;15,94605;797,94340;0,16664
242,27601;16,02608;798,49483;0,16756
243,47601;16,10611;798,66406;0,16849
244,67601;16,18602;798,83328;0,16941
245,87601;16,26614;799,13093;0,17034
247,07601;16,34602;800,08348;0,17126
248,27601;16,42608;800,26211;0,17219
249,47601;16,50608;799,98635;0,17311
250,67601;16,58599;800,79790;0,17403
251,87601;16,66608;800,73839;0,17495
253,07601;16,74611;801,41835;0,17587
254,27601;16,82608;801,80373;0,17679
255,47601;16,90608;801,25229;0,17770
256,67601;16,98602;801,58133;0,17861
257,87601;17,06611;801,43092;0,17953
259,07601;17,14605;802,23614;0,18044
260,27601;17,22611;802,26129;0,18135
261,47601;17,30608;803,24197;0,18226
262,67601;17,38599;802,46804;0,18317
263,87601;17,46611;803,11354;0,18408
265,07601;17,54610;803,69636;0,18499
266,27601;17,62608;804,17888;0,18590
267,47601;17,70611;803,96580;0,18681
268,67601;17,78602;804,45465;0,18771
269,87601;17,86605;804,68021;0,18862
271,07601;17,94605;805,07509;0,18953
272,27601;18,02608;805,65158;0,19043
273,47601;18,10607;805,55137;0,19133
274,67601;18,18602;806,54463;0,19222
275,87601;18,26613;805,80199;0,19313
277,07601;18,34602;805,90546;0,19402
278,27601;18,42608;806,08092;0,19492
279,47601;18,50608;806,55720;0,19581
280,67601;18,58599;807,52857;0,19670
281,87601;18,66610;807,56927;0,19759
283,07601;18,74610;807,74156;0,19848
284,27601;18,82607;807,60997;0,19937
285,47601;18,90608;807,44084;0,20026
286,67601;18,98602;808,68164;0,20114
287,87601;19,06610;808,49677;0,20203
289,07601;19,14605;808,65659;0,20291
290,27601;19,22607;808,07377;0,20378
291,47601;19,30608;809,03573;0,20465
292,67601;19,38599;809,61222;0,20553
293,87601;19,46610;809,43052;0,20640
295,07601;19,54610;809,27070;0,20727
296,27601;19,62607;809,52449;0,20813
297,47601;19,70610;810,12305;0,20899
298,67601;19,78602;810,56170;0,20985
299,87601;19,86605;809,59657;0,21068
301,07601;19,94605;809,53389;0,21145
302,27601;20,02608;808,30250;0,21218
303,27801;20,09288;13,66267;0,18730
304,47801;20,17288;13,49032;0,17399
305,67801;20,25283;14,21415;0,16646
305,77601;20,25944;14,30188;0,16595