Folder: DeSiPro_OmniUAV_2024/02_Appendices/Appendix_C_Experimental_Data/C_1_Materials_Tests/C_1_1_Tensile_tests/C_1_1_4_Impact Smooth 3D

File: Specimen_RawData_1.csv
Text Inputs : Specimen label;"1"
Dimension : Length;50,00000;mm
Dimension : Final length;100,00000;mm
Test : Rate 1;3,00000;mm/min
General : Unique Identifier;"{A7CABEE3-3337-437A-B917-93F82D2293BE}"

Time;Extension;Load;Strain 1
(sec);(mm);(N);(mm/mm)
0,00000;0,00000;2,97013;0,00009
1,90000;0,06336;28,95249;0,00062
3,80000;0,12670;51,63536;0,00117
5,70000;0,19000;72,13110;0,00170
7,60000;0,25330;91,10712;0,00223
9,50000;0,31661;102,75407;0,00258
11,40000;0,37997;102,55353;0,00268
13,30000;0,44333;101,10901;0,00274
15,20000;0,50669;101,75450;0,00280
17,10000;0,56997;102,02085;0,00285
19,00000;0,63333;103,03607;0,00292
20,90000;0,69664;115,33477;0,00321
22,80000;0,75997;130,53188;0,00360
24,70000;0,82336;147,45864;0,00406
26,60000;0,88667;164,99016;0,00454
28,50000;0,95000;181,80413;0,00505
30,40000;1,01330;199,87146;0,00556
32,30000;1,07664;216,41280;0,00607
34,20000;1,13994;231,76658;0,00657
36,10000;1,20336;248,11367;0,00709
38,00000;1,26669;264,07535;0,00761
39,90000;1,33006;279,35079;0,00812
41,80000;1,39333;294,56983;0,00863
43,70000;1,45669;309,12461;0,00915
45,60000;1,51994;323,79844;0,00966
47,50000;1,58322;337,82991;0,01018
49,40000;1,64669;351,88959;0,01070
51,30000;1,71003;365,64535;0,01122
53,20000;1,77330;378,58011;0,01174
55,10000;1,83672;392,68681;0,01227
57,00000;1,90000;406,22945;0,01280
58,90000;1,96325;418,45609;0,01332
60,80000;2,02666;430,40384;0,01385
62,70000;2,09000;444,29116;0,01439
64,60000;2,15333;455,04509;0,01491
66,50000;2,21669;467,33124;0,01545
68,40000;2,27994;478,45803;0,01599
70,30000;2,34327;489,38431;0,01652
72,20000;2,40664;500,14136;0,01706
74,10000;2,47000;510,44407;0,01762
76,00000;2,53336;519,96028;0,01817
77,90000;2,59675;531,23119;0,01872
79,80000;2,66000;541,40543;0,01928
81,70000;2,72330;550,42030;0,01984
83,60000;2,78663;560,37521;0,02041
85,50000;2,84994;570,19535;0,02098
87,40000;2,91333;578,49581;0,02156
89,30000;2,97669;587,13150;0,02214
91,20000;3,04002;595,87690;0,02272
93,10000;3,10336;604,48130;0,02331
95,00000;3,16666;612,00778;0,02390
96,90000;3,22994;620,38968;0,02451
98,80000;3,29327;627,64045;0,02511
100,70000;3,35672;635,12931;0,02572
102,60000;3,42000;642,94096;0,02633
104,50000;3,48330;649,64960;0,02695
106,40001;3,54669;656,22670;0,02758
108,30001;3,60994;662,50293;0,02821
110,20001;3,67327;669,53432;0,02885
112,10001;3,73669;675,10558;0,02950
114,00001;3,80002;680,85538;0,03015
115,90001;3,86333;686,42036;0,03081
117,80001;3,92669;692,76555;0,03147
119,70001;3,99000;697,61924;0,03214
121,60001;4,05327;702,06244;0,03281
123,50001;4,11663;707,50206;0,03349
125,40001;4,18000;711,95466;0,03418
127,30001;4,24336;716,39470;0,03487
129,20001;4,30672;720,28018;0,03556
131,10001;4,37002;724,15937;0,03626
133,00001;4,43330;727,63120;0,03697
134,90001;4,49666;731,55421;0,03768
136,80001;4,55997;734,86627;0,03840
138,70001;4,62336;738,11249;0,03912
140,60001;4,68672;741,57179;0,03985
142,50001;4,75005;745,37266;0,04059
144,40001;4,81330;747,43759;0,04132
146,30001;4,87663;750,32660;0,04207
148,20001;4,93994;752,70170;0,04282
150,10001;5,00336;755,46228;0,04358
152,00001;5,06669;758,26668;0,04434
153,90001;5,13005;760,58228;0,04510
155,80001;5,19336;761,99546;0,04587
157,70001;5,25669;763,97266;0,04665
159,60001;5,31997;767,07788;0,04742
161,50001;5,38321;768,47854;0,04821
163,40001;5,44669;770,43064;0,04899
165,30001;5,51002;772,15717;0,04978
167,11601;5,57048;773,28519;0,05054
169,01601;5,63378;775,34383;0,05133
170,91601;5,69712;777,26152;0,05213
172,81601;5,76042;778,25482;0,05294
174,71601;5,82384;779,57083;0,05375
176,61601;5,88717;780,55789;0,05456
178,51601;5,95048;781,27543;0,05538
180,41601;6,01378;782,66980;0,05620
182,31601;6,07712;783,89496;0,05703
184,21601;6,14039;785,32062;0,05785
186,11601;6,20381;785,83453;0,05869
188,01601;6,26717;786,88422;0,05952
189,91601;6,33051;788,56060;0,06036
191,81601;6,39384;788,88647;0,06120
193,71601;6,45714;789,44424;0,06204
195,61601;6,52039;791,05170;0,06289
197,51601;6,58370;791,59690;0,06374
199,41601;6,64717;792,10140;0,06460
201,31601;6,71048;792,42410;0,06545
203,21601;6,77381;792,47430;0,06631
205,11601;6,83720;793,67748;0,06717
207,01601;6,90048;795,21602;0,06803
208,91601;6,96375;794,17257;0,06889
210,81601;7,02714;794,55804;0,06976
212,71601;7,09048;796,02133;0,07063
214,61601;7,15384;796,79210;0,07150
216,51601;7,21714;796,21244;0,07238
218,41601;7,28045;796,79843;0,07325
220,31601;7,34378;797,44700;0,07413
222,21601;7,40711;797,65385;0,07500
224,11601;7,47045;797,33422;0,07588
226,01601;7,53384;799,34588;0,07677
227,91601;7,59720;798,06745;0,07765
229,81601;7,66048;799,49629;0,07854
231,71601;7,72381;800,33289;0,07942
233,61601;7,78709;799,75631;0,08031
235,51601;7,85039;799,52450;0,08120
237,41601;7,91381;799,90989;0,08210
239,31601;7,97717;799,88800;0,08298
241,21601;8,04050;800,39240;0,08388
243,11601;8,10384;800,58984;0,08477
245,01601;8,16714;801,00661;0,08567
246,91601;8,23039;801,82757;0,08656
248,81601;8,29375;801,56438;0,08746
250,71601;8,35717;802,04066;0,08836
252,61601;8,42047;801,63954;0,08926
254,51601;8,48378;802,53882;0,09015
256,41601;8,54720;802,50753;0,09105
258,31601;8,61042;802,56704;0,09195
260,21601;8,67375;802,80518;0,09285
262,11601;8,73714;803,28463;0,09376
264,01601;8,80050;802,41039;0,09466
265,91601;8,86378;802,82399;0,09556
267,81601;8,92720;802,64853;0,09647
269,71601;8,99045;804,01776;0,09737
271,61601;9,05378;804,12123;0,09828
273,51601;9,11708;804,18698;0,09918
275,41601;9,18044;804,40324;0,10009
277,31601;9,24384;804,59751;0,10100
279,21601;9,30717;804,51285;0,10190
281,11601;9,37047;804,96408;0,10281
283,01601;9,43378;805,58136;0,10371
284,91601;9,49714;805,84148;0,10462
286,81601;9,56039;805,70672;0,10552
288,71601;9,62384;805,21479;0,10642
290,61601;9,68723;805,56888;0,10733
292,51601;9,75047;805,55631;0,10824
294,41601;9,81381;805,91356;0,10915
296,31601;9,87711;806,32716;0,11005
298,21601;9,94039;806,60917;0,11096
300,11601;10,00381;806,48381;0,11186
302,01601;10,06717;807,36121;0,11277
303,91601;10,13050;807,15436;0,11368
305,81601;10,19383;807,40508;0,11458
307,71601;10,25717;808,35130;0,11549
309,61601;10,32042;807,92205;0,11640
311,51601;10,38369;808,53933;0,11730
313,41601;10,44717;808,75559;0,11820
315,31601;10,51047;808,60825;0,11911
317,21602;10,57378;809,63606;0,12001
319,11602;10,63720;808,55191;0,12092
321,01602;10,70044;809,58279;0,12182
322,91602;10,76375;809,08453;0,12272
324,81602;10,82714;809,11899;0,12362
326,71602;10,89050;809,08770;0,12452
328,61602;10,95383;810,16868;0,12543
330,51602;11,01714;810,00263;0,12632
332,41602;11,08044;810,66377;0,12722
334,31602;11,14375;810,83616;0,12812
336,21602;11,20708;810,96152;0,12902
338,11602;11,27041;811,27482;0,12993
340,01602;11,33383;812,22113;0,13083
341,91602;11,39720;812,72563;0,13172
343,81602;11,46047;812,51254;0,13262
345,71602;11,52378;812,74444;0,13353
347,61602;11,58711;813,79097;0,13442
349,51602;11,65039;813,41499;0,13532
351,41602;11,71378;813,58105;0,13622
353,31602;11,77714;813,79414;0,13712
355,21602;11,84050;814,21398;0,13801
357,11602;11,90383;813,82543;0,13890
359,01602;11,96714;813,96643;0,13980
360,91602;12,03041;814,18576;0,14068
362,81602;12,09378;814,40201;0,14158
364,71602;12,15717;814,47409;0,14247
366,61602;12,22047;816,27266;0,14337
368,51602;12,28380;816,19434;0,14426
370,41602;12,34714;815,85273;0,14515
372,31602;12,41041;816,17860;0,14604
374,21602;12,47372;816,55467;0,14693
376,11602;12,53714;816,41674;0,14781
378,01602;12,60053;817,24403;0,14870
379,91602;12,66380;817,41009;0,14959
381,81602;12,72717;817,80804;0,15048
383,71602;12,79047;818,15580;0,15137
385,61602;12,85375;818,49108;0,15225
387,51602;12,91705;818,86714;0,15314
389,41602;12,98044;818,82328;0,15402
391,31602;13,04383;818,89844;0,15490
393,21602;13,10716;819,00498;0,15578
395,11602;13,17050;819,66612;0,15667
397,01602;13,23377;820,66879;0,15755
398,91602;13,29708;820,39312;0,15842
400,81602;13,36044;820,74720;0,15930
402,71602;13,42380;820,99475;0,16018
404,61602;13,48714;820,91326;0,16105
406,51602;13,55050;821,74670;0,16193
408,41602;13,61377;822,50815;0,16280
410,31602;13,67708;822,23238;0,16368
412,21602;13,74044;822,80580;0,16456
414,11602;13,80380;822,98126;0,16543
416,01602;13,86714;823,91510;0,16630
417,91602;13,93052;824,14690;0,16718
419,81602;13,99380;824,37564;0,16805
421,71602;14,05711;824,86132;0,16892
423,61602;14,12044;824,61378;0,16979
425,51602;14,18372;825,46612;0,17066
427,41602;14,24713;826,71009;0,17152
429,31602;14,31050;825,92042;0,17239
431,21602;14,37380;826,01132;0,17325
433,11602;14,43714;826,60979;0,17412
435,01602;14,50047;826,37165;0,17498
436,91602;14,56374;826,90436;0,17585
438,81602;14,62705;827,18637;0,17671
440,71602;14,69052;827,49343;0,17757
442,61602;14,75383;828,13269;0,17843
444,51602;14,81713;827,96654;0,17929
446,41602;14,88047;828,46479;0,18015
448,31602;14,94374;828,73115;0,18101
450,21602;15,00702;829,28576;0,18185
452,11602;15,07047;830,09107;0,18271
454,01602;15,13383;830,73340;0,18357
455,91602;15,19716;830,66756;0,18442
457,81602;15,26052;830,81489;0,18528
459,71602;15,32380;830,90886;0,18613
461,61602;15,38705;831,02481;0,18698
463,51602;15,45044;832,11837;0,18783
465,41602;15,51377;831,84261;0,18868
467,31602;15,57710;832,39414;0,18952
469,21602;15,64049;833,03647;0,19037
471,11602;15,70383;832,96755;0,19121
473,01602;15,76710;834,14260;0,19206
474,91602;15,83046;833,36234;0,19290
476,81602;15,89380;834,10805;0,19374
478,71602;15,95716;833,92952;0,19458
480,61602;16,02049;835,28310;0,19542
482,51602;16,08380;835,12962;0,19626
484,41602;16,14713;835,64660;0,19710
486,31602;16,21044;836,52399;0,19793
488,21602;16,27374;837,34496;0,19877
490,11602;16,33713;836,12911;0,19961
492,01602;16,40055;837,16633;0,20044
493,91602;16,46383;837,93085;0,20127
495,81602;16,52716;837,39189;0,20210
497,71602;16,59046;837,73350;0,20293
499,61602;16,65377;838,84895;0,20377
501,51602;16,71705;839,34087;0,20459
503,41602;16,78044;838,67973;0,20542
505,31602;16,84383;839,13412;0,20626
507,21602;16,91511;841,83514;0,20716
509,11602;17,01041;849,64680;0,20831
511,01602;17,10548;855,69425;0,20946
512,73802;17,19158;-1,37907;0,26624
514,63802;17,28656;-0,09750;0,27545
515,26002;17,31764;0,15318;0,27767

File: Specimen_RawData_3.csv
Text Inputs : Specimen label;"1"
Dimension : Length;50,00000;mm
Dimension : Final length;100,00000;mm
Test : Rate 1;4,00000;mm/min
General : Unique Identifier;"{F30A581E-71DC-4F5A-A49C-0ACACFBA28FE}"

Time;Extension;Load;Strain 1
(sec);(mm);(N);(mm/mm)
0,00000;0,00003;0,07583;-0,00001
1,00000;0,03325;8,49535;0,00015
2,00000;0,06672;21,27972;0,00036
3,00000;0,10000;31,85817;0,00058
4,00000;0,13336;42,54002;0,00080
5,00000;0,16667;53,16233;0,00103
6,00000;0,20003;62,96681;0,00126
7,00000;0,25598;81,98671;0,00164
8,00000;0,32291;102,44171;0,00209
9,00000;0,38954;114,89082;0,00242
10,00000;0,45630;114,76547;0,00250
11,00000;0,52291;113,29904;0,00254
12,00000;0,58954;113,33977;0,00259
13,00000;0,65627;114,15445;0,00266
14,00000;0,72288;120,10797;0,00280
15,00000;0,78957;131,90844;0,00308
16,00000;0,85627;148,42787;0,00344
17,00000;0,92290;166,63934;0,00387
18,00000;0,98957;183,14623;0,00430
19,00000;1,05627;202,03765;0,00479
20,00000;1,12293;220,51232;0,00527
21,00000;1,18957;238,74885;0,00576
22,00000;1,25627;255,57221;0,00626
23,00000;1,32293;273,47975;0,00675
24,00000;1,38954;288,84292;0,00724
25,00000;1,45627;306,40266;0,00774
26,00000;1,52290;322,32357;0,00824
27,00000;1,58954;338,02204;0,00874
28,00000;1,65627;353,13768;0,00923
29,00000;1,72290;368,85496;0,00972
30,00000;1,78957;383,89852;0,01022
31,00000;1,85624;397,56023;0,01071
32,00000;1,92290;412,10875;0,01120
33,00000;1,98960;425,33493;0,01170
34,00000;2,05624;439,13457;0,01219
35,00000;2,12293;452,61141;0,01269
36,00000;2,18957;466,17603;0,01319
37,00000;2,25627;478,01095;0,01370
38,00000;2,32290;490,95829;0,01420
39,00000;2,38957;502,77440;0,01470
40,00000;2,45629;514,82869;0,01520
41,00000;2,52290;526,28140;0,01571
42,00000;2,58954;537,45830;0,01621
43,00000;2,65629;548,78253;0,01672
44,00000;2,72287;559,80901;0,01723
45,00000;2,78957;569,88611;0,01773
46,00000;2,85624;580,61811;0,01824
47,00000;2,92290;589,66433;0,01876
48,00000;2,98957;599,99521;0,01927
49,00000;3,05626;608,74061;0,01978
50,00000;3,12296;618,50436;0,02030
51,00000;3,18957;626,88943;0,02081
52,00000;3,25629;635,98263;0,02134
53,00000;3,32290;643,97599;0,02186
54,00000;3,38954;652,37982;0,02238
55,00000;3,45626;660,75549;0,02292
56,00000;3,52290;668,98069;0,02344
57,00000;3,58954;675,73953;0,02397
58,00000;3,65624;683,77363;0,02451
59,00000;3,72290;690,30053;0,02505
60,00000;3,78957;697,72364;0,02559
61,00000;3,85623;702,78100;0,02613
62,00000;3,92290;710,85896;0,02667
63,00000;3,98960;715,96014;0,02722
64,00000;4,05623;721,47497;0,02777
65,00000;4,12293;726,80493;0,02832
66,00000;4,18957;732,85559;0,02888
67,00000;4,25626;737,23611;0,02944
68,00000;4,32290;742,83243;0,03000
69,00000;4,38957;747,48867;0,03056
70,00000;4,45626;752,52410;0,03113
71,00000;4,52290;756,70723;0,03169
72,00000;4,58957;761,31024;0,03227
73,00000;4,65626;765,59675;0,03284
74,00000;4,72287;769,66081;0,03342
75,00000;4,78957;772,56551;0,03399
76,00000;4,85626;776,43213;0,03458
77,00000;4,92290;780,13898;0,03516
78,00000;4,98957;783,24731;0,03575
79,00000;5,05623;785,94517;0,03634
80,00000;5,12296;789,47656;0,03694
81,00000;5,18957;791,88934;0,03753
82,00000;5,25629;794,42738;0,03813
83,00000;5,32293;797,08453;0,03873
84,00000;5,38954;799,96418;0,03934
85,00000;5,45629;801,55283;0,03995
86,00000;5,52290;804,78648;0,04055
87,00000;5,58954;805,92390;0,04116
88,00000;5,65623;808,53403;0,04178
89,00000;5,72290;810,16971;0,04239
90,00000;5,78957;812,15631;0,04301
91,00000;5,85626;813,71674;0,04363
92,00000;5,92290;815,41510;0,04425
93,00000;5,98959;817,10396;0,04487
94,00000;6,05623;818,70202;0,04550
95,00000;6,12293;819,74547;0,04613
96,00000;6,18957;821,74772;0,04676
97,00000;6,25629;822,75039;0,04739
98,00000;6,32290;824,16357;0,04803
99,00000;6,38957;824,88116;0,04866
100,00000;6,45629;826,76429;0,04930
101,00000;6,52290;827,66367;0,04994
102,00000;6,58957;829,24599;0,05058
102,86400;6,64711;829,31183;0,05114
103,86400;6,71375;830,84721;0,05178
104,86400;6,78039;831,74333;0,05243
105,86401;6,84711;831,74966;0,05307
106,86401;6,91372;832,60816;0,05371
107,86401;6,98042;833,13147;0,05436
108,86401;7,04709;834,19057;0,05501
109,86401;7,11375;834,65120;0,05566
110,86401;7,18039;835,01153;0,05631
111,86401;7,24709;835,74783;0,05696
112,86401;7,31378;835,67267;0,05762
113,86401;7,38039;836,59394;0,05827
114,86401;7,44709;836,95427;0,05893
115,86401;7,51375;838,00703;0,05958
116,86401;7,58036;838,09793;0,06024
117,86401;7,64711;838,03842;0,06090
118,86401;7,71375;838,99098;0,06156
119,86401;7,78039;838,74660;0,06222
120,86401;7,84708;838,84057;0,06288
121,86401;7,91375;839,43903;0,06355
122,86401;7,98045;840,16910;0,06421
123,86401;8,04708;840,58270;0,06487
124,86401;8,11375;840,16602;0,06554
125,86401;8,18042;840,73944;0,06620
126,86401;8,24708;841,83924;0,06687
127,86401;8,31378;840,69241;0,06754
128,86401;8,38039;841,39118;0,06821
129,86401;8,44708;840,89609;0,06888
130,86401;8,51372;841,27840;0,06955
131,86401;8,58036;841,36613;0,07022
132,86401;8,64711;842,14006;0,07089
133,86401;8,71375;841,79221;0,07156
134,86401;8,78039;841,69824;0,07224
135,86401;8,84711;842,14630;0,07291
136,86401;8,91375;842,74476;0,07358
137,86401;8,98042;841,94262;0,07425
138,86401;9,04711;842,49415;0,07493
139,86401;9,11378;841,94895;0,07560
140,86401;9,18039;841,87370;0,07627
141,86401;9,24711;842,26225;0,07694
142,86401;9,31378;841,94578;0,07761
143,86401;9,38039;841,70448;0,07828
144,86401;9,44708;842,73545;0,07895
145,86401;9,51375;842,48474;0,07962
146,86401;9,58036;842,32492;0,08029
147,86401;9,64711;841,95519;0,08097
148,86401;9,71375;842,79180;0,08164
149,86401;9,78039;842,39384;0,08231
150,86401;9,84708;842,60069;0,08299
151,86401;9,91375;842,58188;0,08366
152,86401;9,98042;842,13065;0,08434
153,86401;10,04708;843,16786;0,08502
154,86401;10,11378;842,74169;0,08569
155,86401;10,18042;842,57564;0,08637
156,86401;10,24708;842,57247;0,08705
157,86401;10,31378;842,73228;0,08773
158,86401;10,38039;842,06490;0,08841
159,86401;10,44708;842,74169;0,08909
160,86401;10,51375;842,11808;0,08977
161,86401;10,58039;842,67585;0,09045
162,86401;10,64711;842,60693;0,09113
163,86401;10,71375;842,54425;0,09181
164,86401;10,78039;842,73852;0,09248
165,86401;10,84711;841,75775;0,09316
166,86401;10,91375;842,50662;0,09384
167,86401;10,98042;842,20590;0,09452
168,86401;11,04711;842,04292;0,09520
169,86401;11,11375;842,28730;0,09588
170,86401;11,18039;842,87953;0,09656
171,86401;11,24711;843,41848;0,09724
172,86401;11,31378;842,27165;0,09791
173,86401;11,38039;842,60693;0,09860
174,86401;11,44708;842,34374;0,09929
175,86401;11,51375;842,13382;0,09997
176,86401;11,58036;842,32492;0,10065
177,86401;11,64711;842,76358;0,10133
178,86401;11,71375;843,04251;0,10201
179,86401;11,78038;843,02686;0,10268
180,86401;11,84708;843,15846;0,10336
181,86401;11,91375;842,36255;0,10404
182,86401;11,98044;842,45028;0,10472
183,86401;12,04708;842,68218;0,10540
184,86401;12,11378;842,14322;0,10607
185,86401;12,18041;842,99548;0,10675
186,86401;12,24708;843,02053;0,10743
187,86401;12,31375;842,79804;0,10809
188,86401;12,38038;842,97042;0,10869
189,86401;12,44708;843,44046;0,10916
190,86401;12,51375;843,38086;0,10974
191,86401;12,58036;843,05815;0,11037
192,86401;12,64711;842,95478;0,11102
193,86401;12,71375;843,60959;0,11167
194,86401;12,78038;842,99548;0,11231
195,86401;12,84711;843,50314;0,11296
196,86401;12,91375;842,79496;0,11360
197,86401;12,98041;843,91041;0,11424
198,86401;13,04711;842,60069;0,11489
199,86401;13,11375;844,03576;0,11552
200,86401;13,18038;843,08637;0,11616
201,86401;13,24711;843,89159;0,11680
202,86401;13,31377;842,61633;0,11744
203,86401;13,38038;843,84773;0,11809
204,86401;13,44711;843,61592;0,11875
205,86401;13,51375;843,92922;0,11942
206,86401;13,58035;843,38402;0,12009
207,86401;13,64711;843,81960;0,12076
208,86401;13,71374;843,57830;0,12143
209,86401;13,78038;843,94179;0,12210
210,86401;13,84708;844,13914;0,12278
211,86401;13,91374;844,63423;0,12345
212,86401;13,98041;844,10161;0,12412
213,86401;14,04711;845,03852;0,12479
214,86401;14,11377;844,32093;0,12547
215,86401;14,18041;844,83167;0,12615
216,86401;14,24708;844,95069;0,12682
217,86401;14,31374;844,23944;0,12750
218,86401;14,38041;843,92922;0,12817
219,86401;14,44708;844,50264;0,12885
220,86401;14,51374;844,90376;0,12952
221,86401;14,58038;845,34865;0,13020
222,86401;14,64711;845,17319;0,13088
223,86401;14,71374;844,25202;0,13155
224,86401;14,78038;845,64639;0,13223
225,86401;14,84711;844,96010;0,13291
226,86401;14,91374;844,85356;0,13358
227,86401;14,98044;845,00089;0,13426
228,86401;15,04708;845,98167;0,13493
229,86401;15,11374;845,87513;0,13561
230,86401;15,18038;845,98474;0,13628
231,86401;15,24711;846,05999;0,13696
232,86401;15,31377;846,26367;0,13763
233,86401;15,38038;847,12850;0,13830
234,86401;15,44710;846,27615;0,13897
235,86401;15,51374;846,54251;0,13964
236,86401;15,58035;846,27308;0,14031
237,86401;15,64708;846,05683;0,14098
238,86401;15,71377;846,89977;0,14165
239,86401;15,78038;847,35090;0,14231
240,86401;15,84710;846,94987;0,14298
241,86401;15,91374;847,42615;0,14365
242,86401;15,98044;847,27891;0,14431
243,86401;16,04710;847,17236;0,14498
244,86401;16,11377;847,19425;0,14564
245,86401;16,18041;847,54517;0,14631
246,86401;16,24707;847,62042;0,14697
247,86401;16,31377;847,85540;0,14764
248,86401;16,38041;847,68934;0,14830
249,86401;16,44708;848,02145;0,14896
250,86401;16,51374;848,41317;0,14962
251,86401;16,58038;848,53536;0,15027
252,86401;16,64710;848,98341;0,15093
253,86401;16,71374;848,15314;0,15160
254,86401;16,78041;848,46644;0,15230
255,86401;16,84710;847,97759;0,15300
256,86401;16,91374;848,53852;0,15369
257,86401;16,98044;848,39752;0,15438
258,86401;17,04710;848,35049;0,15504
259,86401;17,11377;847,06889;0,15564
260,65001;17,16613;7,67126;0,14220
261,65001;17,23280;7,76213;0,13126
262,65001;17,29941;8,07233;0,12519
263,41801;17,35069;8,52041;0,12167