Folder: DeSiPro_OmniUAV_2024/02_Appendices/Appendix_C_Experimental_Data/C_1_Materials_Tests/C_1_1_Tensile_tests/C_1_1_2_Quanton Iron

File: Specimen_RawData_2.csv
Text Inputs : Specimen label;"1"
Dimension : Length;50,00000;mm
Dimension : Final length;100,00000;mm
Test : Rate 1;4,00000;mm/min
General : Unique Identifier;"{3A6F2CAD-5807-4622-92CE-D5D0B7A6813D}"

Time;Extension;Load;Strain 1
(sec);(mm);(N);(mm/mm)
0,00000;0,00000;6,55547;-0,00003
2,00000;0,13330;72,20701;0,00075
4,00000;0,26667;72,39814;0,00083
6,00000;0,40006;72,96843;0,00087
8,00000;0,53336;114,73700;0,00133
10,00000;0,66669;185,08240;0,00220
12,00000;0,80000;255,61580;0,00317
14,00000;0,93336;320,03277;0,00412
16,00000;1,06669;383,96092;0,00505
18,00000;1,19997;442,72202;0,00598
20,00000;1,33330;499,87887;0,00690
22,00000;1,46667;552,84314;0,00780
24,00000;1,59997;603,00301;0,00868
26,00000;1,73336;650,65618;0,00953
28,00000;1,86666;695,84018;0,01038
30,00000;2,00000;738,77433;0,01122
32,00000;2,13333;781,24795;0,01206
34,00000;2,26666;821,37147;0,01290
36,00000;2,40005;862,07464;0,01374
38,00000;2,53336;899,62874;0,01458
40,00000;2,66666;937,08886;0,01543
42,00000;2,80003;973,37393;0,01628
44,00000;2,93333;1009,63078;0,01715
46,00000;3,06666;1043,47179;0,01803
48,00000;3,20000;1076,37588;0,01892
50,00000;3,33333;1107,64122;0,01980
52,00000;3,46666;1136,37783;0,02069
54,00000;3,60000;1165,18345;0,02159
56,00000;3,73336;1192,51003;0,02250
58,00000;3,86663;1217,25155;0,02342
60,00000;4,00000;1241,50114;0,02436
62,00000;4,13330;1265,26188;0,02531
64,00000;4,26666;1287,28990;0,02627
66,00000;4,40005;1306,99910;0,02725
68,00000;4,53336;1326,46710;0,02823
70,00000;4,66666;1342,96771;0,02924
72,00000;4,79999;1357,96741;0,03025
74,00000;4,93333;1372,06158;0,03128
76,00000;5,06669;1384,55452;0,03231
78,00000;5,19997;1395,26147;0,03336
80,00000;5,33333;1404,18857;0,03441
82,00000;5,46666;1412,46393;0,03548
84,00000;5,59999;1418,59604;0,03654
86,00000;5,73336;1423,86649;0,03763
88,00000;5,86663;1427,70810;0,03871
90,00000;5,99999;1430,40279;0,03979
92,00000;6,13333;1432,65575;0,04088
94,00000;6,26666;1432,76230;0,04197
96,00000;6,40005;1431,51209;0,04305
98,00000;6,53335;1429,87017;0,04413
100,00000;6,66666;1428,04962;0,04520
102,00000;6,79999;1425,43325;0,04628
104,00000;6,93333;1421,68254;0,04734
106,00001;7,06669;1418,58980;0,04841
108,00001;7,19996;1413,46976;0,04947
109,96401;7,33090;1409,00463;0,05050
111,89001;7,45919;1405,10360;0,05150
113,89001;7,59250;1399,34430;0,05254
115,89001;7,72583;1394,74133;0,05357
117,89001;7,85917;1389,08857;0,05459
119,89001;7,99247;1383,00033;0,05561
121,89001;8,12583;1378,12160;0,05662
123,89001;8,25919;1372,68510;0,05762
125,89001;8,39255;1367,69982;0,05862
127,89001;8,52583;1361,87477;0,05962
129,89001;8,65916;1356,35370;0,06060
131,89001;8,79252;1350,57252;0,06158
133,89001;8,92586;1345,17048;0,06255
135,89001;9,05919;1340,04736;0,06352
137,89001;9,19247;1335,25012;0,06448
139,89001;9,32580;1329,48142;0,06544
141,89001;9,45916;1326,18193;0,06640
143,89001;9,59250;1320,26915;0,06736
145,89001;9,72583;1316,32732;0,06831
147,89001;9,85916;1312,56096;0,06925
149,89001;9,99247;1307,82640;0,07020
151,89001;10,12583;1302,96638;0,07113
153,89001;10,25919;1298,45738;0,07207
155,89001;10,39255;1294,51239;0,07300
157,89001;10,52586;1290,94031;0,07394
159,89001;10,65916;1287,09562;0,07487
161,89001;10,79249;1283,57988;0,07579
163,89001;10,92586;1279,67875;0,07672
165,89001;11,05922;1276,27589;0,07765
167,89001;11,19247;1272,94194;0,07857
169,89001;11,32583;1269,39798;0,07949
171,89001;11,45922;1266,79102;0,08041
173,89001;11,59249;1262,81474;0,08132
175,89001;11,72586;1260,15125;0,08224
177,89001;11,85916;1257,15882;0,08316
179,89001;11,99246;1254,26361;0,08408
181,89001;12,12583;1252,23938;0,08500
183,89001;12,25919;1249,69818;0,08591
185,89001;12,39255;1246,81229;0,08683
187,89001;12,52585;1244,89153;0,08775
189,89001;12,65916;1242,25002;0,08866
191,89001;12,79249;1239,34224;0,08957
193,89001;12,92585;1237,47159;0,09049
195,89001;13,05919;1234,92405;0,09140
197,89001;13,19249;1232,64920;0,09232
199,89001;13,32582;1230,97906;0,09324
201,89001;13,45919;1228,54756;0,09416
203,89001;13,59249;1226,34480;0,09508
205,89001;13,72585;1225,07261;0,09599
207,89001;13,85916;1222,88233;0,09691
209,89001;13,99246;1220,48529;0,09782
211,89001;14,12582;1218,79317;0,09874
213,89001;14,25919;1217,31739;0,09967
215,89001;14,39255;1215,08949;0,10059
217,89001;14,52585;1214,75104;0,10152
219,89001;14,65919;1212,88672;0,10245
221,89001;14,79249;1211,87456;0,10338
223,89001;14,92585;1210,84685;0,10431
225,89001;15,05921;1209,06709;0,10524
227,89001;15,19249;1207,04910;0,10618
229,89001;15,32582;1206,60421;0,10712
231,89001;15,45919;1205,46985;0,10806
233,89001;15,59246;1204,64582;0,10900
235,89001;15,72585;1204,29797;0,10995
237,89001;15,85915;1203,24828;0,11089
239,89001;15,99246;1201,78806;0,11185
241,89001;16,12582;1200,86065;0,11280
243,89001;16,25924;1199,49756;0,11376
245,89001;16,39257;1199,46934;0,11472
247,89001;16,52585;1198,71730;0,11568
249,89001;16,65918;1197,46709;0,11664
251,89001;16,79249;1197,07547;0,11761
253,89001;16,92579;1196,42997;0,11858
255,89001;17,05918;1196,35165;0,11956
257,89001;17,19246;1194,71280;0,12053
259,89001;17,32588;1194,24909;0,12152
261,89001;17,45921;1194,43079;0,12250
263,89001;17,59254;1193,99214;0,12349
265,89001;17,72585;1193,19307;0,12448
267,89001;17,85918;1193,30594;0,12548
269,89001;17,99246;1192,99255;0,12647
271,89001;18,12585;1191,93038;0,12748
273,89001;18,25921;1191,55124;0,12848
275,89001;18,39251;1191,53867;0,12949
277,89001;18,52582;1191,34439;0,13051
279,89001;18,65912;1191,31934;0,13153
281,89001;18,79246;1190,57354;0,13255
283,89001;18,92582;1190,73652;0,13357
285,89001;19,05918;1191,05922;0,13460
287,89001;19,19246;1189,91556;0,13564
289,89001;19,32582;1190,00953;0,13668
291,89001;19,45921;1190,36045;0,13773
293,89001;19,59251;1190,49838;0,13878
295,89001;19,72590;1190,13488;0,13984
297,89001;19,85924;1190,59235;0,14091
299,89001;19,99251;1190,28846;0,14197
301,89001;20,12587;1190,81168;0,14304
303,89001;20,25924;1190,05032;0,14411
305,89001;20,39254;1190,32292;0,14519
307,89001;20,52582;1190,66127;0,14627
309,89001;20,65915;1190,78979;0,14736
311,89001;20,79245;1191,12814;0,14845
313,89001;20,92582;1190,68949;0,14956
315,89002;21,05918;1191,93979;0,15066
317,89002;21,19245;1191,58877;0,15177
319,89002;21,32579;1191,70472;0,15288
321,89002;21,45918;1192,30319;0,15400
323,89002;21,59248;1192,94561;0,15512
325,89002;21,72581;1192,37844;0,15625
327,89002;21,85915;1193,09593;0,15738
329,89002;21,99245;1194,36188;0,15852
331,89002;22,12584;1193,64429;0,15966
333,89002;22,25923;1194,30544;0,16082
335,89002;22,39254;1194,79112;0,16198
337,89002;22,52587;1195,19848;0,16313
339,89002;22,65918;1195,85022;0,16430
341,89002;22,79248;1195,81576;0,16547
343,89002;22,92584;1195,55881;0,16664
345,89002;23,05923;1196,76832;0,16783
347,89002;23,19248;1197,07547;0,16902
349,89002;23,32584;1197,90267;0,17022
351,89002;23,45920;1198,04051;0,17142
353,89002;23,59248;1198,52303;0,17262
355,89002;23,72584;1199,46934;0,17383
357,89002;23,85915;1199,78273;0,17504
359,89002;23,99245;1199,25942;0,17626
361,89002;24,12584;1200,75718;0,17749
363,89002;24,25920;1200,36555;0,17872
365,89002;24,39253;1200,86372;0,17996
367,89002;24,52584;1201,71607;0,18120
369,89002;24,65917;1202,07947;0,18245
371,89002;24,79248;1202,94429;0,18370
373,89002;24,92581;1201,90401;0,18497
375,89002;25,05917;1202,94429;0,18623
377,89002;25,19245;1203,38304;0,18749
379,89002;25,32584;1203,75585;0,18878
381,89002;25,45923;1204,10370;0,19005
383,89002;25,59248;1204,59255;0,19134
385,89002;25,72584;1205,10636;0,19263
387,89002;25,85917;1204,66454;0,19393
389,89002;25,99245;1205,73938;0,19524
391,89002;26,12581;1207,00840;0,19655
393,89002;26,25920;1206,52895;0,19786
395,89002;26,39251;1207,50973;0,19918
397,89002;26,52584;1206,94572;0,20051
399,89002;26,65917;1207,66954;0,20183
401,89002;26,79248;1208,03928;0,20317
403,89002;26,92584;1207,92333;0,20452
405,89002;27,05920;1208,83519;0,20587
407,89002;27,19245;1208,87281;0,20722
409,89002;27,32581;1209,64358;0,20858
411,89002;27,45920;1209,68437;0,20995
413,89002;27,59250;1210,62435;0,21131
415,89002;27,72584;1210,50533;0,21269
417,89002;27,85917;1210,91893;0,21407
419,89002;27,99247;1211,17271;0,21545
421,89002;28,12584;1210,85932;0,21685
423,89002;28,25923;1211,32629;0,21825
425,89002;28,39253;1212,00308;0,21965
427,89002;28,52581;1213,00574;0,22106
429,89002;28,65917;1212,91801;0,22247
431,89002;28,79247;1213,14991;0,22389
433,89002;28,92584;1213,25646;0,22530
435,89002;29,05923;1213,37548;0,22673
437,89002;29,19248;1213,83928;0,22816
439,89002;29,32584;1214,34685;0,22960
441,89002;29,45920;1214,09306;0,23105
443,89002;29,59250;1215,50001;0,23250
445,89002;29,72586;1215,47179;0,23395
447,89002;29,85917;1215,70360;0,23541
449,89002;29,99244;1215,51873;0,23687
451,89002;30,12583;1216,12037;0,23834
453,89002;30,25922;1216,00442;0,23981
455,89002;30,39253;1216,54030;0,24129
457,89002;30,52581;1217,01965;0,24276
459,89002;30,65920;1217,39255;0,24424
461,89002;30,79247;1217,36750;0,24574
463,89002;30,92581;1217,97854;0,24724
465,89002;31,05920;1218,82763;0,24874
467,89002;31,19244;1218,39521;0,25023
469,89002;31,32580;1218,52690;0,25173
471,89002;31,45922;1218,06627;0,25324
473,89002;31,59250;1218,43908;0,25474
475,89002;31,72583;1217,95656;0,25626
477,89002;31,85919;1218,60206;0,25778
479,89002;31,99244;1218,37333;0,25933
481,89002;32,12583;1219,23191;0,26086
483,89002;32,25922;1219,30083;0,26240
485,89002;32,39252;1219,81781;0,26393
487,89002;32,52580;1219,77711;0,26547
489,89002;32,65916;1219,96822;0,26697
491,89002;32,79247;1220,16249;0,26844
493,89002;32,92580;1220,58243;0,26995
495,89002;33,05922;1220,04971;0,27148
497,89002;33,19244;1219,73008;0,27300
499,89002;33,32583;1219,99020;0,27450
501,89002;33,45922;1219,91187;0,27599
503,89002;33,59250;1218,74930;0,27745
505,89002;33,72586;1218,51433;0,27892
507,89002;33,85916;1217,23274;0,28038
509,89002;33,99244;1215,92609;0,28178
511,89002;34,12583;1213,89255;0,28314
513,89002;34,25922;1208,67854;0,28444
515,89002;34,39252;1200,40942;0,28555
517,89002;34,52586;1181,37700;0,28625
518,92602;34,59489;638,30419;0,27601

File: Specimen_RawData_4.csv
Text Inputs : Specimen label;"1"
Dimension : Length;50,00000;mm
Dimension : Final length;100,00000;mm
Test : Rate 1;4,00000;mm/min
General : Unique Identifier;"{69B5B0BA-2DBE-4E4E-997A-A440CEAD9871}"

Time;Extension;Load;Strain 1
(sec);(mm);(N);(mm/mm)
0,00000;0,00000;-2,37571;-0,00006
3,50000;0,23336;114,10625;0,00136
7,00000;0,46664;116,19624;0,00152
10,50000;0,70003;177,58945;0,00226
14,00000;0,93333;280,76689;0,00364
17,50000;1,16669;373,89856;0,00502
21,00000;1,40003;464,27906;0,00644
24,50000;1,63336;543,38556;0,00775
28,00000;1,86664;618,01746;0,00904
31,50000;2,10005;689,03971;0,01033
35,00000;2,33330;760,12458;0,01164
38,50000;2,56664;828,58987;0,01298
42,00000;2,80000;896,74816;0,01436
45,50000;3,03336;961,32187;0,01573
49,00000;3,26669;1026,01768;0,01717
52,50000;3,50005;1087,36390;0,01866
56,00000;3,73336;1146,74233;0,02020
59,50000;3,96675;1201,48640;0,02179
63,00000;4,20002;1255,23088;0,02343
66,50000;4,43336;1306,21800;0,02514
70,00000;4,66666;1351,90021;0,02691
73,50000;4,90002;1393,61545;0,02877
77,00000;5,13333;1431,00983;0,03069
80,50000;5,36669;1464,17087;0,03271
84,00000;5,59999;1492,03008;0,03482
87,50000;5,83341;1516,17946;0,03703
91,00000;6,06669;1535,04889;0,03935
94,50000;6,30005;1549,13366;0,04176
98,00000;6,53335;1560,04112;0,04428
101,50000;6,76666;1566,60564;0,04691
105,00000;6,99999;1568,75197;0,04963
108,35201;7,22333;1568,69870;0,05234
111,85201;7,45669;1565,24256;0,05525
115,35201;7,68999;1560,96863;0,05824
118,85201;7,92335;1553,70850;0,06130
122,35201;8,15671;1545,85298;0,06444
125,85201;8,39005;1537,09818;0,06764
129,35201;8,62332;1527,48479;0,07089
132,85201;8,85666;1517,55810;0,07418
136,35201;9,08999;1507,16146;0,07751
139,85201;9,32332;1496,38243;0,08087
143,35201;9,55671;1485,97946;0,08428
146,85201;9,78996;1476,93017;0,08770
150,35201;10,02332;1466,58672;0,09114
153,85201;10,25668;1456,82609;0,09460
157,35201;10,48993;1448,20912;0,09807
160,85201;10,72332;1440,67015;0,10156
164,35201;10,95671;1431,98119;0,10507
167,85201;11,18999;1424,42016;0,10857
171,35201;11,42329;1416,36729;0,11209
174,85201;11,65671;1407,59060;0,11562
178,35201;11,88996;1401,22967;0,11914
181,85201;12,12335;1393,87241;0,12269
185,35201;12,35671;1388,43907;0,12623
188,85201;12,58998;1382,83968;0,12978
192,35201;12,82335;1377,13682;0,13333
195,85201;13,05668;1371,02352;0,13688
199,35201;13,28993;1366,68058;0,14044
202,85201;13,52335;1362,39408;0,14401
206,35201;13,75668;1357,30533;0,14757
209,85201;13,98996;1352,58958;0,15113
213,35201;14,22332;1348,78559;0,15471
216,85201;14,45668;1344,07599;0,15828
220,35201;14,69004;1341,17138;0,16186
223,85201;14,92334;1337,34541;0,16544
227,35201;15,15671;1334,14306;0,16901
230,85201;15,39004;1331,27281;0,17258
234,35201;15,62332;1327,94203;0,17616
237,85201;15,85668;1325,96483;0,17975
241,35201;16,08992;1323,29203;0,18332
244,85201;16,32334;1321,14561;0,18690
248,35201;16,55668;1318,38508;0,19048
251,85201;16,79001;1315,95349;0,19405
255,35201;17,02331;1313,99203;0,19763
258,85201;17,25673;1312,54746;0,20122
262,35201;17,48995;1309,94990;0,20480
265,85201;17,72331;1308,78109;0,20838
269,35201;17,95670;1306,77577;0,21196
272,85201;18,18998;1306,00175;0,21554
276,35201;18,42331;1304,73897;0,21913
279,85201;18,65670;1303,05318;0,22271
283,35201;18,88998;1301,29540;0,22629
286,85201;19,12334;1300,08589;0,22987
290,35201;19,35670;1298,58498;0,23345
293,85201;19,58998;1298,81054;0,23704
297,35201;19,82337;1297,89244;0,24062
300,85201;20,05667;1297,98651;0,24419
304,35201;20,28992;1296,68610;0,24777
307,85201;20,52334;1296,60461;0,25134
311,35201;20,75667;1296,81770;0,25492
314,85201;20,98998;1297,09654;0,25849
318,35202;21,22331;1296,74878;0,26209
321,85202;21,45670;1296,29755;0,26571
325,35202;21,69000;1296,54510;0,26925
328,85202;21,92337;1295,62700;0,27290
332,35202;22,15667;1296,39786;0,27650
335,85202;22,39006;1295,89643;0,28011
339,35202;22,62334;1296,28815;0,28367
342,85202;22,85667;1296,14715;0,28728
346,35202;23,08997;1296,40410;0,29080
349,85202;23,32331;1295,72731;0,29437
353,35202;23,55667;1296,65164;0,29790
356,85202;23,78997;1296,01872;0,30148
360,35202;24,02336;1296,46054;0,30507
363,85202;24,25672;1295,90901;0,30859
367,35202;24,49000;1297,15921;0,31211
370,85202;24,72331;1302,48293;0,31262
374,35202;24,95669;1301,37997;0,31294
377,85202;25,18997;1301,24521;0,31296
381,35202;25,42328;1300,33968;0,31296
384,85202;25,65669;1301,18253;0,31293
388,35202;25,88997;1302,68345;0,31291
391,85202;26,12336;1303,15032;0,31287
395,35202;26,35667;1304,51964;0,31285
398,85202;26,59000;1304,96770;0,31285
402,35202;26,82336;1305,74796;0,31306
405,85202;27,05669;1301,46770;0,04155
409,35202;27,28994;1303,05011;0,04050
412,85202;27,52336;1302,77434;0,00178
416,35202;27,75669;1303,17546;0,00177
419,85202;27,98997;1304,55103;0,00176
423,35202;28,22333;1304,75471;0,00176
426,85202;28,45669;1306,88539;0,00175
430,35202;28,69000;1306,99510;0,00175
433,85202;28,92333;1307,37731;0,00174
437,35202;29,15669;1308,83437;0,00174
440,85202;29,39002;1309,39530;0,00174
444,35202;29,62330;1309,89347;0,00173
447,85202;29,85666;1310,93375;0,00173
451,35202;30,08997;1311,22833;0,00173
454,85202;30,32336;1311,46330;0,00173
458,35202;30,55669;1313,85727;0,00172
461,85202;30,78997;1313,72251;0,00172
465,35202;31,02330;1316,22925;0,00172
468,85202;31,25672;1315,83763;0,00172
472,35202;31,48996;1316,98446;0,00171
475,85202;31,72332;1317,92128;0,00171
479,35202;31,95669;1319,49428;0,00171
482,85202;32,18996;1320,16484;0,00171
486,35202;32,42332;1320,98896;0,00171
489,85202;32,65669;1321,39632;0,00171
493,35202;32,88999;1323,57087;0,00171
496,85202;33,12332;1324,15369;0,00171
500,35202;33,35671;1325,21903;0,00171
503,85202;33,58999;1326,49122;0,00170
507,35202;33,82335;1327,85114;0,00170
510,85202;34,05671;1328,13631;0,00170
514,35202;34,28996;1329,18600;0,00170
517,85202;34,52335;1329,69357;0,00170
521,35202;34,75665;1330,84981;0,00170
524,85202;34,98996;1330,99714;0,00170
528,35203;35,22332;1332,42281;0,00170
531,85203;35,45671;1331,56739;0,00170
535,35203;35,68999;1333,42547;0,00170
538,85203;35,92335;1333,25318;0,00170
542,35203;36,15668;1334,60993;0,00170
545,85203;36,39004;1334,50339;0,00170
549,35203;36,62329;1336,16095;0,00169
552,85203;36,85665;1337,01954;0,00170
556,35203;37,08999;1337,74336;0,00169
559,85203;37,32335;1338,76801;0,00169
563,35203;37,55668;1339,94622;0,00169
566,85203;37,78996;1340,37230;0,00169
570,35203;38,02334;1341,23405;0,00169
573,85203;38,25671;1341,66013;0,00169
577,35203;38,48996;1343,04827;0,00169
580,85203;38,72332;1344,40502;0,00169
584,35203;38,95668;1344,87506;0,00169
587,85203;39,18995;1346,28825;0,00169
591,35203;39,42329;1345,68345;0,00169
594,85203;39,65671;1347,90512;0,00169
598,35203;39,88998;1348,84827;0,00169
601,85203;40,12334;1349,77885;0,00169
605,35203;40,35668;1349,89480;0,00169
608,85203;40,59001;1351,27977;0,00169
612,35203;40,82334;1351,77486;0,00169
615,85203;41,05670;1352,40471;0,00169
619,35203;41,28995;1352,65850;0,00168
622,85203;41,52337;1352,09449;0,00168
626,35203;41,75667;1353,59848;0,00168
629,85203;41,98995;1355,24981;0,00168
633,35203;42,22331;1354,94592;0,00168
636,85203;42,45671;1354,06852;0,00168
640,35203;42,69001;1355,18713;0,00168
643,85203;42,92334;1355,72609;0,00168
647,35203;43,15670;1355,79500;0,00168
650,85203;43,39004;1356,17414;0,00168
654,35203;43,62334;1356,55962;0,00168
657,85203;43,85667;1357,22701;0,00168
661,35203;44,08992;1356,41545;0,00168
664,85203;44,32331;1358,04173;0,00168
668,35203;44,55667;1357,78161;0,00168
671,85203;44,79001;1358,72476;0,00168
675,35203;45,02334;1360,00635;0,00168
678,85203;45,25673;1358,64336;0,00168
682,35203;45,48995;1359,38590;0,00168
685,85203;45,72331;1360,23508;0,00168
689,35203;45,95667;1360,15993;0,00168
692,85203;46,18995;1360,96207;0,00167
696,35203;46,42331;1361,15318;0,00167
699,85203;46,65670;1361,07486;0,00167
703,35203;46,88998;1361,98979;0,00167
706,85203;47,12336;1362,01177;0,00167
710,35203;47,35670;1363,72577;0,00167
713,85203;47,59000;1363,66934;0,00167
717,35203;47,82333;1364,53416;0,00167
720,85203;48,05670;1364,13313;0,00167
724,35203;48,28994;1364,46208;0,00167
727,85203;48,52336;1365,11698;0,00167
731,35203;48,75667;1366,11024;0,00167
734,85203;48,98997;1365,96924;0,00167
738,35204;49,22331;1365,68723;0,00166
741,85204;49,45669;1365,69664;0,00166
745,35204;49,68997;1366,71504;0,00166
748,85204;49,92333;1367,12864;0,00166
752,35204;50,15667;1367,53283;0,00166
755,85204;50,39002;1367,82425;0,00166
759,35204;50,62328;1369,10267;0,00166
762,85204;50,85664;1369,92680;0,00166
766,35204;51,09000;1369,89858;0,00166
769,85204;51,32330;1370,52210;0,00165
773,35204;51,55666;1370,83549;0,00165
776,85204;51,79000;1371,62199;0,00165
780,35204;52,02333;1371,94786;0,00165
783,85204;52,25669;1371,65021;0,00165
787,35204;52,48997;1372,54950;0,00165
790,85204;52,72330;1373,49572;0,00165
794,35204;52,95672;1372,65287;0,00165
797,85204;53,18997;1373,22005;0,00165
801,35204;53,42330;1374,11933;0,00165
804,85204;53,65672;1373,52087;0,00165
808,35204;53,88994;1374,24469;0,00164
811,85204;54,12333;1375,25992;0,00164
815,35204;54,35666;1375,78314;0,00164
818,85204;54,58999;1376,03693;0,00164
822,35204;54,82336;1376,67619;0,00164
825,85204;55,05672;1377,39060;0,00164
829,35204;55,28991;1378,02986;0,00164
832,85204;55,52330;1378,40584;0,00164
836,35204;55,75666;1379,28631;0,00164
839,85204;55,98996;1379,57772;0,00164
843,35204;56,22333;1380,76842;0,00164
846,85204;56,45666;1380,50206;0,00164
850,35204;56,68999;1380,22006;0,00164
853,85204;56,92333;1380,65247;0,00163
857,35204;57,15671;1380,36422;0,00163
860,85204;57,39002;1380,98150;0,00163
864,35204;57,62333;1380,53345;0,00163
867,85204;57,85666;1380,78416;0,00163
871,35204;58,08993;1380,76842;0,00163
874,85204;58,32333;1380,26085;0,00163
878,35204;58,55666;1380,92516;0,00163
881,85204;58,78999;1380,68702;0,00163
885,35204;59,02332;1381,05676;0,00163
888,85204;59,25671;1380,55226;0,00163
892,35204;59,48996;1380,37363;0,00163
895,85204;59,72335;1379,91300;0,00163
899,35204;59,95668;1380,32660;0,00163
902,85204;60,18996;1378,57189;0,00163
906,35204;60,42332;1376,28447;0,00163
909,26404;60,61742;801,62054;0,00162