Folder: DeSiPro_OmniUAV_2024/02_Appendices/Appendix_C_Experimental_Data/C_1_Materials_Tests/C_1_1_Tensile_tests/C_1_1_3_Smooth Comum

File: Specimen_RawData_10.csv
Text Inputs : Specimen label;"1"
Dimension : Length;50,00000;mm
Dimension : Final length;100,00000;mm
Test : Rate 1;2,00000;mm/min
General : Unique Identifier;"{D3021AB9-DE4B-4C42-AC83-917201171C7A}"

Time;Extension;Load;Strain 1
(sec);(mm);(N);(mm/mm)
0,00000;0,00000;31,42288;0,00029
0,60000;0,01923;32,36919;0,00029
1,20000;0,03989;52,81478;0,00044
1,80000;0,05989;71,52134;0,00058
2,40000;0,07991;87,78068;0,00071
3,00000;0,10017;99,51536;0,00082
3,60000;0,12000;103,07806;0,00087
4,20000;0,14006;103,19400;0,00090
4,80000;0,16003;103,55121;0,00092
5,40000;0,18000;104,44424;0,00094
6,00000;0,20003;105,27773;0,00096
6,60000;0,21997;106,37130;0,00097
7,20000;0,24000;106,81624;0,00098
7,80000;0,25997;106,42143;0,00099
8,40000;0,27991;107,48679;0,00100
9,00000;0,30009;106,34622;0,00101
9,60000;0,32003;107,16405;0,00101
10,20000;0,34003;107,13584;0,00102
10,80000;0,36006;108,02575;0,00103
11,40000;0,38003;108,87804;0,00103
12,00000;0,40011;111,42551;0,00104
12,60000;0,41997;111,45058;0,00105
13,20000;0,43997;116,34185;0,00108
13,80000;0,45994;122,68390;0,00113
14,40000;0,47994;133,57570;0,00121
15,00000;0,50017;143,42405;0,00128
15,60000;0,52000;156,98551;0,00138
16,20000;0,54008;167,72064;0,00147
16,80000;0,56003;178,90383;0,00156
17,40000;0,58000;190,59151;0,00166
18,00000;0,60003;203,47300;0,00176
18,60000;0,61997;215,22022;0,00187
19,20000;0,64000;227,46564;0,00198
19,80000;0,65997;239,05933;0,00208
20,40000;0,68003;251,28596;0,00219
21,00000;0,70003;263,40606;0,00230
21,60000;0,72003;276,29382;0,00241
22,20000;0,74008;288,63326;0,00253
22,80000;0,76003;300,38988;0,00265
23,40000;0,78003;313,07084;0,00277
24,00000;0,80006;326,40670;0,00289
24,60000;0,82000;338,88086;0,00301
25,20000;0,83997;351,79686;0,00313
25,80000;0,85994;363,42500;0,00325
26,40000;0,88000;374,77426;0,00337
27,00000;0,90006;387,11997;0,00349
27,60000;0,92003;399,19615;0,00361
28,20000;0,94006;410,37309;0,00373
28,80000;0,96008;422,49318;0,00384
29,40000;0,98000;433,83930;0,00396
30,00000;1,00003;444,80315;0,00408
30,60000;1,02000;456,80734;0,00419
31,20000;1,04000;467,92785;0,00431
31,80000;1,05997;478,71312;0,00443
32,40000;1,07997;489,48582;0,00454
33,00000;1,10006;499,78853;0,00466
33,60000;1,12003;510,60198;0,00477
34,20000;1,14006;521,20234;0,00489
34,80000;1,16006;530,66532;0,00500
35,40000;1,18000;540,39774;0,00510
36,00000;1,19997;550,25546;0,00521
36,60000;1,22000;559,48342;0,00532
37,20000;1,24000;569,12499;0,00543
37,80000;1,25997;578,71323;0,00553
38,40000;1,27991;587,38342;0,00563
39,00000;1,30006;596,20403;0,00574
39,60000;1,32003;606,53179;0,00584
40,20000;1,34003;614,84789;0,00595
40,80000;1,36006;623,75311;0,00605
41,40000;1,38000;632,60505;0,00615
42,00000;1,40008;641,78598;0,00626
42,60000;1,41997;650,75699;0,00636
43,20000;1,44000;659,45536;0,00646
43,80000;1,45997;668,63005;0,00657
44,40000;1,47991;677,09968;0,00667
45,00000;1,50008;685,23404;0,00677
45,60000;1,52003;694,80352;0,00688
46,20000;1,54011;703,98450;0,00698
46,80000;1,56000;711,10991;0,00708
47,40000;1,57997;720,32530;0,00718
48,00000;1,60003;728,19018;0,00728
48,60000;1,61997;736,66922;0,00738
49,20000;1,64000;744,58742;0,00748
49,80000;1,65997;751,60628;0,00757
50,40000;1,68000;759,65603;0,00767
51,00000;1,70005;765,81948;0,00776
51,60000;1,72003;774,08236;0,00785
52,20000;1,74008;782,57388;0,00795
52,80000;1,76003;788,97234;0,00804
53,40000;1,78000;797,57990;0,00814
54,00000;1,80005;804,85260;0,00823
54,60000;1,82000;812,77387;0,00833
55,20000;1,83997;821,09626;0,00843
55,80000;1,85994;828,00854;0,00852
56,40000;1,88000;836,38113;0,00862
57,00000;1,90003;842,49442;0,00872
57,60000;1,92003;851,18655;0,00882
58,20000;1,94008;859,09842;0,00891
58,80000;1,96008;866,15179;0,00901
59,40000;1,98000;874,26733;0,00911
60,00000;2,00003;880,68768;0,00920
60,60000;2,02000;888,92234;0,00930
61,20000;2,03997;896,90946;0,00940
61,80000;2,05994;903,35803;0,00950
62,40000;2,07997;911,95619;0,00959
63,00000;2,10008;918,73379;0,00969
63,60000;2,12003;926,60179;0,00979
64,20000;2,14003;933,10997;0,00989
64,80000;2,16005;941,62654;0,00998
65,40000;2,18000;948,39167;0,01008
66,00000;2,20000;956,72971;0,01018
66,60000;2,22000;963,99924;0,01028
67,20000;2,23997;970,91161;0,01038
67,80000;2,25997;979,51284;0,01048
68,40000;2,27991;985,53216;0,01058
69,00000;2,30008;993,49106;0,01068
69,60000;2,32003;1000,93298;0,01078
70,20000;2,34000;1008,18370;0,01088
70,80000;2,36005;1015,92951;0,01098
71,40000;2,38003;1023,30558;0,01108
72,00000;2,40011;1030,63779;0,01118
72,60000;2,41997;1037,59402;0,01128
73,20000;2,44000;1045,07981;0,01139
73,80000;2,45994;1052,07358;0,01148
74,40000;2,47994;1059,47163;0,01159
75,00000;2,50008;1066,57818;0,01169
75,60000;2,52003;1074,48380;0,01179
76,20000;2,54011;1080,95752;0,01189
76,80000;2,56000;1088,48400;0,01199
77,40000;2,58000;1095,37439;0,01210
78,00000;2,60003;1102,82879;0,01220
78,60000;2,61997;1109,88524;0,01230
79,20000;2,64000;1117,52143;0,01240
79,80000;2,65997;1124,58104;0,01251
80,40000;2,68003;1130,92624;0,01261
81,00000;2,70005;1137,90436;0,01272
81,60000;2,72003;1146,33013;0,01282
82,20000;2,74008;1152,80384;0,01292
82,80000;2,76003;1160,15170;0,01303
83,40000;2,78000;1166,72246;0,01314
84,00000;2,80005;1174,15814;0,01324
84,60000;2,82000;1181,47461;0,01335
85,20000;2,83997;1188,36509;0,01345
85,80000;2,85994;1195,26796;0,01356
86,40000;2,88000;1202,63780;0,01366
87,00000;2,90005;1209,57522;0,01377
87,60000;2,92003;1216,83534;0,01388
88,20000;2,94008;1223,45937;0,01399
88,80000;2,96008;1231,37441;0,01410
89,40000;2,98000;1237,30293;0,01420
90,00000;3,00002;1244,94219;0,01431
90,60000;3,02000;1251,71039;0,01442
91,20000;3,04000;1258,81387;0,01453
91,80000;3,05997;1265,74188;0,01464
92,40000;3,07997;1272,22808;0,01475
93,00000;3,10005;1279,06837;0,01486
93,60000;3,12002;1287,00528;0,01497
94,20000;3,14003;1293,65129;0,01508
94,80000;3,16005;1300,63882;0,01519
95,40000;3,18002;1307,16264;0,01530
96,00000;3,19997;1313,58616;0,01541
96,60000;3,22000;1321,27246;0,01553
97,20000;3,24000;1327,91214;0,01564
97,80000;3,25997;1335,41981;0,01575
98,40000;3,27991;1341,54567;0,01587
99,00000;3,30005;1347,85641;0,01598
99,60000;3,32002;1356,06602;0,01610
100,20000;3,34002;1361,52124;0,01621
100,80000;3,36008;1368,69997;0,01633
101,40000;3,38000;1375,44312;0,01644
102,00000;3,40011;1381,95744;0,01656
102,60000;3,41997;1389,21132;0,01667
103,20000;3,44000;1396,33054;0,01679
103,80000;3,45997;1402,39373;0,01691
104,40000;3,47994;1408,74516;0,01703
105,00000;3,50005;1415,32533;0,01715
105,60001;3,52002;1422,62625;0,01727
106,20001;3,54011;1429,23770;0,01739
106,80001;3,56000;1435,66756;0,01750
107,40001;3,58000;1442,16316;0,01762
108,00001;3,60002;1448,99711;0,01774
108,60001;3,61997;1455,49271;0,01786
109,20001;3,64000;1461,85048;0,01798
109,80001;3,65997;1467,78515;0,01810
110,40001;3,68000;1474,91368;0,01821
111,00001;3,70005;1481,24006;0,01834
111,60001;3,72002;1488,46572;0,01846
112,20001;3,74008;1493,63903;0,01858
112,80001;3,76002;1500,52942;0,01870
113,40001;3,78002;1506,13831;0,01882
114,00001;3,80002;1512,47093;0,01895
114,60001;3,82002;1520,07891;0,01907
115,20001;3,84000;1525,64384;0,01920
115,80001;3,85994;1532,70969;0,01933
116,40001;3,88000;1537,92370;0,01945
117,00001;3,90005;1544,67942;0,01958
117,60001;3,92002;1550,67053;0,01971
118,20001;3,94008;1557,38546;0,01983
118,80001;3,96008;1563,61461;0,01996
119,40001;3,98000;1569,30499;0,02009
120,00001;4,00002;1575,51859;0,02022
120,60001;4,02002;1582,26471;0,02035
121,20001;4,03997;1588,09610;0,02048
121,80001;4,05997;1594,51030;0,02061
122,40001;4,07994;1599,90918;0,02074
123,00001;4,10008;1606,93433;0,02087
123,60001;4,12002;1613,00991;0,02100
124,20001;4,14005;1618,83496;0,02113
124,80001;4,16005;1624,61307;0,02126
125,40001;4,18000;1630,21255;0,02139
126,00001;4,20000;1636,53884;0,02153
126,60001;4,21999;1642,43914;0,02166
127,20001;4,24000;1648,95672;0,02180
127,80001;4,25997;1654,51840;0,02193
128,40001;4,27991;1660,39988;0,02207
129,00001;4,30005;1666,16533;0,02220
129,60001;4,32002;1672,27238;0,02234
130,20001;4,33999;1678,27290;0,02248
130,80001;4,36005;1682,92932;0,02261
131,40001;4,38002;1689,14590;0,02275
132,00001;4,40011;1694,75172;0,02289
132,60001;4,41997;1701,23149;0,02303
133,20001;4,43999;1706,53649;0,02317
133,80001;4,45994;1711,52800;0,02331
134,40001;4,47994;1716,96767;0,02345
135,00001;4,50008;1722,67985;0,02359
135,60001;4,52002;1727,44580;0,02373
136,20001;4,54008;1733,43383;0,02388
136,80001;4,56002;1739,68803;0,02402
137,40001;4,57999;1744,84253;0,02416
138,00001;4,60002;1749,87167;0,02431
138,60001;4,61997;1755,43986;0,02445
139,20001;4,63999;1760,54724;0,02460
139,80001;4,65997;1765,75202;0,02474
140,40001;4,68002;1771,84641;0,02489
141,00001;4,70005;1776,46521;0,02504
141,60001;4,72002;1782,00509;0,02518
142,20001;4,74008;1786,52033;0,02533
142,80001;4,76002;1792,24499;0,02548
143,40001;4,77999;1796,14294;0,02563
144,00001;4,80005;1802,18425;0,02578
144,60001;4,81999;1806,79038;0,02593
145,20001;4,83994;1811,85398;0,02608
145,80001;4,85997;1816,47576;0,02623
146,40001;4,87999;1822,17862;0,02638
147,00001;4,90002;1826,55286;0,02654
147,60001;4,92002;1831,71686;0,02669
148,20001;4,94008;1835,56788;0,02684
148,80001;4,96008;1840,49979;0,02699
149,40001;4,97999;1845,10276;0,02715
150,00001;5,00002;1849,78731;0,02730
150,60001;5,01999;1854,70674;0,02746
151,20001;5,03997;1858,74254;0,02761
151,80001;5,05997;1862,60305;0,02777
152,40001;5,07997;1867,70726;0,02793
153,00001;5,10008;1871,69313;0,02808
153,60001;5,12002;1876,90705;0,02825
154,20001;5,14002;1880,83649;0,02840
154,80001;5,16005;1884,57146;0,02856
155,40001;5,17999;1889,60694;0,02872
156,00001;5,19997;1893,04110;0,02888
156,60001;5,21997;1898,50256;0,02904
157,20001;5,24002;1902,51339;0,02921
157,64601;5,25495;1236,13095;0,03071
157,64801;5,25504;1122,40016;0,03114